File: remote_client/raman_1.csv
1	16.3.10	"ACME"	"JH9279-7"	"JH9279-7c1"	"Eagle2000"	500,00	488	150	10	30,00	40,00	82,6%					"Corning 0.7mm"	647
2	16.3.10	"ACME"	"JH9328-11"	"JH9328-11c1"	"Eagle2000"	500,00	488	150	10	30,00	40,00	78,8%					"Corning rau"	413
3	16.3.10	"Ding"	"10c017"	"10c017c1"	"Corning 1.1mm"	500,00	488	150	10	30,00	40,00		"SiOx"				"Quarz"	752
4	16.3.10	"Ding"	"10c018"	"10c018c1"	"Corning 1.1mm"	500,00	488	150	10	30,00	40,00		"SiOx"				"Quarz rau"	"x"
5	16.3.10	"Ding"	"10c019"	"10c019c1"	"Corning 1.1mm"	500,00	488	150	10	30,00	40,00		"SiOx"				"ZnO"	"x"
6	16.3.10	"Ding"	"10c022"	"10c022c1"	"Corning 1.1mm"	500,00	488	150	10	30,00	40,00		"SiOx"				"ZnO geätzt"	"x"
7	16.3.10	"Ding"	"10c024"	"10c024c1"	"Corning 1.1mm"	500,00	488	150	10	30,00	40,00		"SiOx"				"Asai-U"	"x"
8	16.3.10	"Ding"	"10c025"	"10c025c1"	"Corning 1.1mm"	500,00	488	150	10	30,00	40,00		"SiOx"				"Si-Wafer"	"x"
9	16.3.10	"Ding"	"10c026"	"10c026c1"	"Corning 1.1mm"	500,00	488	150	10	30,00	40,00		"SiOx"				"Chrom"	"x"
10	18.3.10	"Xiao"	"10b098"	"10b098z1"	"ZnO"	668,00	647	200	10	30,00	30,00	86,4%					"Alu Folie"
11	18.3.10	"Xiao"	"10b098"	"10b098rc1"	"Corning rau"	668,00	647	200	10	30,00	30,00	79,3%					"Molydän Folie"
12	18.3.10	"Xiao"	"10b044"	"10b044a1"	"Alu Folie"	668,00	647	200	10	30,00	30,00	39,9%					"Floatglas"
13	18.3.10	"Xiao"	"10b044"	"10b044rc1"	"Corning rau"	668,00	647	200	10	30,00	30,00	2,6%					"Eagle2000"
14	19.3.10	"Grootoonk"	"10b058"	"10b058rc1"	"Corning rau"	500,00	488	150	10	30,00	30,00	60,5%
15	19.3.10	"Grootoonk"	"10b058"	"10b058c1"	"Corning 1.1mm"	500,00	488	150	10	30,00	30,00	77,7%					"x"
16	19.3.10	"Grootoonk"	"10b046"	"10b046rc1"	"Corning rau"	500,00	488	150	10	30,00	30,00	23,1%					"x"
17	19.3.10	"Grootoonk"	"10b046"	"10b046c1"	"Corning 1.1mm"	500,00	488	150	10	30,00	30,00	52,8%
18	19.3.10	"Grootoonk"	"10b072"	"10b072rc1"	"Corning rau"	500,00	488	150	10	30,00	30,00	0,0%
19	19.3.10	"Grootoonk"	"10b072"	"10b072c1"	"Corning 1.1mm"	500,00	488	150	10	30,00	30,00	0,0%
20	19.3.10	"Grootoonk"	"10b049"	"10b049rc1"	"Corning rau"	500,00	488	150	10	30,00	30,00	65,3%
21	19.3.10	"Grootoonk"	"10b049"	"10b049c2"	"Corning 1.1mm"	500,00	488	150	10	30,00	30,00	74,7%
22	19.3.10	"Grootoonk"	"10b103"	"10b103rc"	"Corning rau"	500,00	488	150	10	30,00	30,00	0,0%
23	19.3.10	"Grootoonk"	"10b103"	"10b103c1"	"Corning 1.1mm"	500,00	488	150	10	30,00	30,00	0,0%	" Sieht rau aus!"
24	19.3.10	"Grootoonk"	"10b055"	"10b055rc1"	"Corning rau"	500,00	488	150	10	30,00	30,00	1,0%
25	19.3.10	"Grootoonk"	"10b069"	"10b069c1"	"Corning 1.1mm"	500,00	488	150	10	30,00	30,00	72,2%
26	19.3.10	"Grootoonk"	"10b069"	"10b069rc1"	"Corning rau"	500,00	488	150	10	30,00	30,00	48,9%
27	19.3.10	"Grootoonk"	"10b110"	"10b110c1"	"Corning 1.1mm"	500,00	488	150	10	30,00	30,00	0,0%
28	19.3.10	"Grootoonk"	"10b110"	"10b110rc1"	"Corning rau"	500,00	488	150	10	30,00	30,00	0,0%
29	23.3.10	"Ding"	"10c028"	"10c028c1"	"Corning 1.1mm"	500,00	488	150	10	30,00	30,00		"SiOx"
30	23.3.10	"Ding"	"10c029"	"10c029c1"	"Corning 1.1mm"	500,00	488	150	10	30,00	30,00		"SiOx"
31	23.3.10	"Ding"	"10c030"	"10c030c1"	"Corning 1.1mm"	500,00	488	150	10	30,00	30,00		"SiOx"
32	23.3.10	"Ding"	"10c031"	"10c031c1"	"Corning 1.1mm"	500,00	488	150	10	30,00	30,00		"SiOx"
33	23.3.10	"Ding"	"10c032"	"10c032c1"	"Corning 1.1mm"	500,00	488	150	10	30,00	30,00		"SiOx"
34	23.3.10	"Ding"	"10c033"	"10c033c1"	"Corning 1.1mm"	500,00	488	150	10	30,00	30,00		"SiOx"
35	23.3.10	"Schulte"	"08L1240-1"	"08L1240-1_18-19"	"ZnO geätzt"	668,00	647	200	10	10,00	30,00	67,6%	"Zwischen Zelle 18 und 19"
36	23.3.10	"Schulte"	"08L1240-1"	"08L1240-1_29-30"	"ZnO geätzt"	668,00	647	200	10	10,00	30,00	65,0%	"Zwischen Zelle 29 und 30"
37	23.3.10	"Schulte"	"09L0010-2"	"09L0010-2_18-19"	"ZnO geätzt"	668,00	647	200	10	10,00	30,00	64,3%	"Zwischen Zelle 18 und 19"
38	23.3.10	"Schulte"	"09L0010-2"	"09L0010-2_5-6"	"ZnO geätzt"	668,00	647	200	10	10,00	30,00	67,4%	"Zwischen Zelle 5 und 6"
39	23.3.10	"Köhler"	"02C038"	"02C038c1"	"Corning 1.1mm"	668,00	647	200	10	20,00	30,00	66,7%	"Vergleich Kristallinität Raman-XRD"
40	23.3.10	"Köhler"	"01C341"	"01C341c1"	"Corning 1.1mm"	668,00	647	200	10	20,00	30,00	42,1%	"Vergleich Kristallinität Raman-XRD"
41	24.3.10	"Bosquet"	"10L0395-1-3"	"10L0395-1-3c1"	"Corning 1.1mm"	668,00	647	200	10	30,00	30,00	71,3%
42	24.3.10	"Bosquet"	"10L0395-2-2"	"10L0395-2-2t1"	"ZnO geätzt"	668,00	647	200	10	30,00	30,00	68,2%
43	24.3.10	"Bosquet"	"10L0395-1-2"	"10L0395-1-2t1"	"ZnO geätzt"	668,00	647	200	10	30,00	30,00	70,6%
44	24.3.10	"Bosquet"	"10L0395-3-1"	"10L0395-3-1t1"	"ZnO geätzt"	668,00	647	200	10	30,00	30,00	74,3%
45	24.3.10	"Bosquet"	"10L0395-4-2"	"10L0395-4-2t1"	"ZnO geätzt"	668,00	647	200	10	30,00	30,00	75,3%
46	24.3.10	"Bosquet"	"10L0395-2-1"	"10L0395-2-1c1"	"Corning 1.1mm"	668,00	647	200	10	30,00	30,00	64,4%
47	25.3.10	"Bosquet"	"10L0395-2-1"	"10L0395-2-1c2"	"Corning 1.1mm"	500,00	488	150	10	30,00	30,00	71,2%
48	25.3.10	"Bosquet"	"10L0395-4-2"	"10L0395-4-2t2"	"ZnO geätzt"	500,00	488	150	10	30,00	30,00	75,2%
49	25.3.10	"Bosquet"	"10L0395-3-1"	"10L0395-3-1t2"	"ZnO geätzt"	500,00	488	150	10	30,00	30,00	74,2%
50	25.3.10	"Bosquet"	"10L0395-1-2"	"10L0395-1-2t2"	"ZnO geätzt"	500,00	488	150	10	30,00	30,00	69,7%
51	25.3.10	"Bosquet"	"10L0395-2-2"	"10L0395-2-2t2"	"ZnO geätzt"	500,00	488	150	10	30,00	30,00	69,4%
52	25.3.10	"Bosquet"	"10L0395-1-3"	"10L0395-1-3c2"	"Corning 1.1mm"	500,00	488	150	10	30,00	30,00	69,5%
53	25.3.10	"Muthmann"	"10s128-1"	"10s128-1c1"	"Corning 1.1mm"	500,00	488	150	10	30,00	30,00	45,6%	"<p>"
54	25.3.10	"Muthmann"	"10s128-2"	"10s128-2c1"	"Corning 1.1mm"	500,00	488	150	10	30,00	30,00	47,9%	"<p>"
55	25.3.10	"Muthmann"	"10s128-3"	"10s128-3c1"	"Corning 1.1mm"	500,00	488	150	10	30,00	30,00	50,9%	"<p>"
56	25.3.10	"Muthmann"	"10s126-1"	"10s126-1c1"	"Corning 1.1mm"	500,00	488	150	10	30,00	30,00	56,6%	"<p>"
57	25.3.10	"Muthmann"	"10s126-2"	"10s126-2c1"	"Corning 1.1mm"	500,00	488	150	10	30,00	30,00	54,8%	"<p>"
58	25.3.10	"Muthmann"	"10s126-3"	"10s126-3c1"	"Corning 1.1mm"	500,00	488	150	10	30,00	30,00	56,2%	"<p>"
59	25.3.10	"Muthmann"	"10s130-1"	"10s130-1c1"	"Corning 1.1mm"	500,00	488	150	10	30,00	30,00	50,2%	"<p>"
60	25.3.10	"Muthmann"	"10s130-2"	"10s130-2c1"	"Corning 1.1mm"	500,00	488	150	10	30,00	30,00	46,7%	"<p>"
61	25.3.10	"Muthmann"	"10s130-3"	"10s130-3c1"	"Corning 1.1mm"	500,00	488	150	10	30,00	30,00	48,4%	"<p>"
62	25.3.10	"Muthmann"	"Corning"	"Cor250310"	"Corning 1.1mm"	500,00	488	150	10	30,00	30,00		"Corning Substrat"
63	29.3.10	"Bosquet"	"10L0395a-1-L"	"10L0395a-1-Ls1"	"Si-Wafer"	500,00	488	150	10	30,00	30,00	72,5%
64	29.3.10	"Bosquet"	"10L0395a-1-2"	"10L0395a-1-2s1"	"Si-Wafer"	500,00	488	150	10	30,00	30,00	73,1%
65	29.3.10	"Bosquet"	"10L0395a-1-3"	"10L0395a-1-3s1"	"Si-Wafer"	500,00	488	150	10	30,00	30,00	70,6%
66	29.3.10	"Bosquet"	"10L0395b-1-3"	"10L0395b-1-3s1"	"Si-Wafer"	500,00	488	150	10	30,00	30,00	70,5%
67	29.3.10	"Bosquet"	"10L0395a-2-2"	"10L0395a-2-2s1"	"Si-Wafer"	500,00	488	150	10	30,00	30,00	70,8%
68	30.3.10	"Bosquet"	"10L0395b-2-2"	"10L0395b-2-2s1"	"Si-Wafer"	500,00	488	150	10	30,00	30,00	72,1%
69	30.3.10	"Bosquet"	"10L0395a-2-1"	"10L0395a-2-1s1"	"Si-Wafer"	500,00	488	150	10	30,00	30,00	70,1%
70	30.3.10	"Bosquet"	"10L0395b-2-1"	"10L0395b-2-1s1"	"Si-Wafer"	500,00	488	150	10	30,00	30,00	70,7%
71	30.3.10	"Bosquet"	"10s142"	"10s142c1"	"Corning 1.1mm"	500,00	488	150	10	60,00	30,00	65,2%	"<p>"
72	30.3.10	"Bosquet"	"10s143"	"10s143c1"	"Corning 1.1mm"	500,00	488	150	10	60,00	30,00	74,6%	"<n> Sehr dünn ~10nm?"
73	30.3.10	"Bosquet"	"10s144"	"10s144c1"	"Corning 1.1mm"	500,00	488	150	10	60,00	30,00	80,8%
74	30.3.10	"Bosquet"	"Corning"	"Cor300310"	"Corning 1.1mm"	500,00	488	150	10	60,00	30,00		"Corning Substrat"
75	31.3.10	"ACME"	"jg0064-4"	"jg0064-4c1"	"Eagle2000"	500,00	488	150	10	60,00	30,00
76	31.3.10	"ACME"	"jh0049-1"	"jh0049-1c1"	"Eagle2000"	500,00	488	150	10	60,00	30,00
77	31.3.10	"Bosquet"	"10s146"	"10s146c1"	"Corning 1.1mm"	500,00	488	150	10	60,00	30,00	71,3%
78	31.3.10	"Schicho"	"10L0424…0425-2"	"10L0425-2t1"	"ZnO geätzt"	500,00	488	150	10	30,00	30,00	40,5%
79	31.3.10	"Schicho"	"10L0424…0425-3"	"10L0425-3t1"	"Corning 1.1mm"	500,00	488	150	10	30,00	30,00	39,3%
80	31.3.10	"Schicho"	"10L0424…0425-2"	"10L0425-2t2"	"ZnO geätzt"	668,00	647	200	10	30,00	30,00	2,2%
81	31.3.10	"Schicho"	"10L0424…0425-3"	"10L0425-3t2"	"Corning 1.1mm"	668,00	647	200	10	30,00	30,00	3,0%
82	1.4.10	"Ding"	"10c038"	"10c038c1"	"Corning 1.1mm"	500,00	488	150	10	30,00	30,00		"SiOx"
83	1.4.10	"Ding"	"10c041"	"10c041c1"	"Corning 1.1mm"	500,00	488	150	10	30,00	30,00		"SiOx"
84	1.4.10	"Ding"	"10c042"	"10c042c1"	"Corning 1.1mm"	500,00	488	150	10	30,00	30,00		"SiOx"
85	1.4.10	"Ding"	"10c043"	"10c043c1"	"Corning 1.1mm"	500,00	488	150	10	30,00	30,00		"SiOx"
86	1.4.10	"Bosquet"	"10s147"	"10s147c1"	"Corning 1.1mm"	500,00	488	150	10	60,00	30,00	70,6%
87	1.4.10	"Schulte"	"09L0010-2"	"09L0010-2ru1"	"ZnO geätzt"	500,00	488	150	10	30,00	30,00		"Rückseite ZnO Substrat"
88	1.4.10	"Schulte"	"09L0010-2"	"09L0010-2_18-19ru1"	"ZnO geätzt"	500,00	488	150	10	30,00	30,00	41,1%	"Rückseite zwischen Zelle 18 u. 19"
89	1.4.10	"Schulte"	"09L0010-2"	"09L0010-2_5-6ru1"	"ZnO geätzt"	500,00	488	150	10	30,00	30,00	42,3%	"Rückseite zwischen Zelle 5 u. 6"
90	1.4.10	"Schulte"	"08L1240-1"	"08L1240-1ru1"	"ZnO geätzt"	500,00	488	150	10	30,00	30,00		"Rückseite ZnO Substrat"
91	1.4.10	"Schulte"	"08L1240-1"	"08L1240-1_18-19ru1"	"ZnO geätzt"	500,00	488	150	10	30,00	30,00	50,6%	"Rückseite zwischen Zelle 18 u. 19"
92	1.4.10	"Schulte"	"08L1240-1"	"08L1240-1_29-30ru1"	"ZnO geätzt"	500,00	488	150	10	30,00	30,00	50,1%	"Rückseite zwischen Zelle 29 u. 30"
93	8.4.10	"Köhler"	"10L049-2"	"10L0492c"	"ZnO geätzt"	500,00	488	150	10	60,00	30,00	13,0%
94	8.4.10	"ACME"	"SL0074-19"	"SL0074-19c1"	"Eagle2000"	500,00	488	150	10	60,00	30,00
95	8.4.10	"ACME"	"JH0050-8"	"JH0050-8c1"	"Eagle2000"	500,00	488	150	10	30,00	30,00
96	8.4.10	"ACME"	"JH0050-5"	"JH0050-5c1"	"Eagle2000"	500,00	488	150	10	60,00	30,00
97	8.4.10	"ACME"	"SL0075-1"	"SL0075-1c1"	"Eagle2000"	500,00	488	150	10	30,00	30,00
98	8.4.10	"ACME"	"SL0077-12"	"SL0077-12c1"	"Eagle2000"	500,00	488	150	10	30,00	30,00
99	8.4.10	"ACME"	"SL0074-6"	"SL0074-6c1"	"Eagle2000"	500,00	488	150	10	30,00	30,00
100	12.4.10	"Bosquet"	"10L0446-1-2"	"10L0446-1-2t1"	"ZnO geätzt"	500,00	488	150	10	30,00	30,00	71,0%
101	12.4.10	"Bosquet"	"10L0446-1-3"	"10L0446-1-3c1"	"Corning 1.1mm"	500,00	488	150	10	30,00	30,00	69,0%
102	12.4.10	"Bosquet"	"10L0447-1-2"	"10L0447-1-2t1"	"ZnO geätzt"	500,00	488	150	10	30,00	30,00	80,3%
103	12.4.10	"Bosquet"	"10L0447-1-3"	"10L0447-1-3c1"	"Corning 1.1mm"	500,00	488	150	10	30,00	30,00	81,1%
104	13.4.10	"Bosquet"	"10L0449-1-2"	"10L0449-1-2t1"	"ZnO geätzt"	500,00	488	150	10	30,00	30,00	63,5%
105	13.4.10	"Bosquet"	"10L0449-1-3"	"10L0449-1-3c1"	"Corning 1.1mm"	500,00	488	150	10	30,00	30,00	64,0%
106	13.4.10	"Bosquet"	"10L0446-1-2"	"10L0446-1-2t2"	"ZnO geätzt"	668,00	647	200	10	30,00	30,00	74,7%
107	13.4.10	"Bosquet"	"10L0446-1-3"	"10L0446-1-3c2"	"Corning 1.1mm"	668,00	647	200	10	30,00	30,00	70,7%
108	13.4.10	"Bosquet"	"10L0447-1-2"	"10L0447-1-2t2"	"ZnO geätzt"	668,00	647	200	10	30,00	30,00	80,3%
109	13.4.10	"Bosquet"	"10L0447-1-3"	"10L0447-1-3c2"	"Corning 1.1mm"	668,00	647	200	10	30,00	30,00	80,5%
110	13.4.10	"Bosquet"	"10L0449-1-2"	"10L0449-1-2t2"	"ZnO geätzt"	668,00	647	200	10	30,00	30,00	66,5%
111	13.4.10	"Bosquet"	"10L0449-1-3"	"10L0449-1-3c2"	"Corning 1.1mm"	668,00	647	200	10	30,00	30,00	68,9%
112	14.4.10	"Bosquet"	"10L0452-1-2"	"10L0452-1-2t2"	"ZnO geätzt"	668,00	647	200	10	30,00	30,00	63,0%
113	14.4.10	"Bosquet"	"10L0452-1-3"	"10L0452-1-3c2"	"Corning 1.1mm"	668,00	647	200	10	30,00	30,00	67,2%
114	14.4.10	"Meier"	"10S170"	"10s170t1"	"ZnO geätzt"	668,00	647	200	10	30,00	30,00	53,9%
115	15.4.10	"Grootoonk"	"10B134"	"10B134-14t1"	"ZnO geätzt"	668,00	647	200	10	30,00	30,00	23,7%	"<pin> Neben Zelle 14"
116	15.4.10	"Grootoonk"	"10B134"	"10B134-05t1"	"ZnO geätzt"	668,00	647	200	10	30,00	30,00	51,3%	"<pin> Neben Zelle 5"
117	15.4.10	"Bosquet"	"10L0457-1-2"	"10L0457-1-2t1"	"ZnO geätzt"	668,00	647	200	10	30,00	35,00	40,3%
118	15.4.10	"Bosquet"	"10L0457-1-3"	"10L0457-1-3c1"	"Corning 1.1mm"	668,00	647	200	10	30,00	35,00	58,5%
119	15.4.10	"Bosquet"	"10L0459-1-2"	"10L0459-1-2t1"	"ZnO geätzt"	668,00	647	200	10	30,00	35,00	34,9%
120	15.4.10	"Bosquet"	"10L0459-1-3"	"10L0459-1-3c1"	"Corning 1.1mm"	668,00	647	200	10	30,00	35,00	37,7%
121	20.4.10	"Bosquet"	"10L0463-1-3"	"10L0463-1-3c1"	"Corning 1.1mm"	668,00	647	200	10	30,00	40,00	58,1%
122	20.4.10	"Bosquet"	"10L0463-1-2"	"10L0463-1-2t1"	"ZnO geätzt"	668,00	647	200	10	30,00	40,00	37,6%
123	20.4.10	"Bosquet"	"10L0460-1-2"	"10L0460-1-2t1"	"ZnO geätzt"	668,00	647	200	10	30,00	40,00	77,4%
124	20.4.10	"Bosquet"	"10L0460-1-2"	"10L0460-1-3c1"	"Corning 1.1mm"	668,00	647	200	10	30,00	40,00	78,2%
125	21.4.10	"Böttler"	"10b104"	"10b104st1"	"ZnO geätzt"	668,00	647	200	10	30,00	40,00	66,9%	"<nip>Silber + text. ZnO"
126	21.4.10	"Böttler"	"10b104"	"10b104t1"	"ZnO geätzt"	668,00	647	200	10	30,00	40,00	66,7%	"<nip>text. ZnO"
127	21.4.10	"Böttler"	"10b119"	"10b119st1"	"ZnO geätzt"	668,00	647	200	10	30,00	40,00	76,8%	"<nip>Silber + text. ZnO"
128	21.4.10	"Böttler"	"10b119"	"10b119t1"	"ZnO geätzt"	668,00	647	200	10	30,00	40,00	68,4%	"<nip>text. ZnO"
129	21.4.10	"Böttler"	"10b122"	"10b122st1"	"ZnO geätzt"	668,00	647	200	10	30,00	40,00	69,2%	"<nip>Silber + text. ZnO"
130	21.4.10	"Böttler"	"10b122"	"10b122t1"	"ZnO geätzt"	668,00	647	200	10	30,00	40,00	67,6%	"<nip>N996text. ZnO"
131	21.4.10	"Böttler"	"10b133"	"10b133st1"	"ZnO geätzt"	668,00	647	200	10	30,00	40,00	66,4%	"<nip>Silber + text. ZnO"
132	21.4.10	"Böttler"	"10b092"	"10b092st1"	"ZnO geätzt"	668,00	647	200	10	30,00	40,00	69,7%	"<nip>Silber + text. ZnO"
133	21.4.10	"Böttler"	"10b033"	"10b033st1"	"ZnO geätzt"	668,00	647	200	10	30,00	40,00	71,4%	"<nip>Silber + text. ZnO"
134	21.4.10	"Böttler"	"10b146"	"10b146st1"	"ZnO geätzt"	668,00	647	200	10	30,00	40,00	69,9%	"<nip>Silber + text. ZnO"
135	21.4.10	"Grootoonk"	"10b121"	"10b116-16t1"	"ZnO geätzt"	668,00	647	200	10	30,00	40,00	4,9%	"<pin> an Zelle 16"
136	21.4.10	"Grootoonk"	"10b121"	"10b121-3t1"	"ZnO geätzt"	668,00	647	200	10	30,00	40,00	20,0%	"<pin> an Zelle 3"
137	22.4.10	"Grootoonk"	"10b108"	"10b108-18t1"	"ZnO geätzt"	668,00	647	200	10	30,00	40,00	31,0%	"<pin> an Zelle 18"
138	22.4.10	"Grootoonk"	"10b108"	"10b109-6t1"	"ZnO geätzt"	668,00	647	200	10	30,00	40,00	68,3%	"<pin> an Zelle 6"
139	22.4.10	"Grootoonk"	"10b097"	"10b097-14t1"	"ZnO geätzt"	668,00	647	200	10	30,00	40,00	48,3%	"<pin> an Zelle 14"
140	22.4.10	"Grootoonk"	"10b097"	"10b095-4t1"	"ZnO geätzt"	668,00	647	200	10	30,00	40,00	44,0%	"<pin> an Zelle 4"
141	22.4.10	"Grootoonk"	"10b148"	"10b148-6t1"	"ZnO geätzt"	668,00	647	200	10	30,00	40,00	71,1%	"<pin> an Zelle 6"
142	22.4.10	"Sellmer"	"10c049"	"10c049c1"	"Corning 1.1mm"	668,00	647	200	10	30,00	40,00	80,0%
143	22.4.10	"Sellmer"	"10c048"	"10c048c1"	"Corning 1.1mm"	668,00	647	200	10	30,00	40,00	70,2%
144	22.4.10	"Sellmer"	"10c047"	"10c047c1"	"Corning 1.1mm"	668,00	647	200	10	30,00	40,00	60,7%
145	22.4.10	"Sellmer"	"10c046"	"10c046c1"	"Corning 1.1mm"	668,00	647	200	10	30,00	40,00	45,4%
146	26.4.10	"Schicho"	"08L-1215"	"08L-1215t1"	"ZnO geätzt"	500,00	488	150	13	30,00	40,00	84,8%
147	28.4.10	"Michard"	"10p065"	"10p065c1"	"Corning 1.1mm"	668,00	647	200	10	30,00	40,00	72,7%
148	28.4.10	"Michard"	"10p066"	"10p066c1"	"Corning 1.1mm"	668,00	647	200	10	30,00	40,00	27,1%
149	28.4.10	"Michard"	"10p067"	"10p067c1"	"Corning 1.1mm"	668,00	647	200	10	30,00	40,00	27,0%
150	29.4.10	"Wördenweber"	"10d103-1"	"10d103-1t1"	"ZnO geätzt"	668,00	647	200	10	30,00	35,00	7,7%	"<pin>Silber + text. ZnO"
151	29.4.10	"Wördenweber"	"10d085-5"	"10d085-5t1"	"ZnO geätzt"	668,00	647	200	10	30,00	35,00	60,0%	"<pin>Silber + text. ZnO"
152	29.4.10	"Wördenweber"	"10d085-1"	"10d085-1t1"	"ZnO geätzt"	668,00	647	200	10	30,00	35,00	62,8%	"<pin>Silber + text. ZnO"
153	29.4.10	"Wördenweber"	"10d050-5"	"10d050-5t1"	"ZnO geätzt"	668,00	647	200	10	30,00	35,00	57,2%	"<pin>Silber + text. ZnO"
154	29.4.10	"Wördenweber"	"10d111-1"	"10d111-1t1"	"ZnO geätzt"	668,00	647	200	10	30,00	35,00	48,8%	"<pin>Silber + text. ZnO"
155	29.4.10	"Wördenweber"	"10d103-5"	"10d103-5t1"	"ZnO geätzt"	668,00	647	200	10	30,00	35,00	21,4%	"<pin>Silber + text. ZnO"
156	29.4.10	"Renato"	"R290410_1"	"R290410_1a"	"Si-Wafer"	668,00	647	200	10	30,00	35,00		"SiGe"
157	29.4.10	"Renato"	"R290410_2"	"R290410_2a"	"Si-Wafer"	668,00	647	200	10	30,00	35,00		"SiGe"
158	29.4.10	"Renato"	"R290410_3"	"R290410_3a"	"Si-Wafer"	668,00	647	200	10	30,00	35,00		"SiGe"
159	29.4.10	"Renato"	"R290410_4"	"R290410_4a"	"Si-Wafer"	668,00	647	200	10	30,00	35,00		"SiGe"
160	29.4.10	"Renato"	"R290410_5"	"R290410_5a"	"Si-Wafer"	668,00	647	200	10	30,00	35,00		"SiGe"
161	30.4.10	"Renato"	"R290410_6"	"R290410_6a"	"Si-Wafer"	668,00	647	200	10	30,00	35,00		"SiGe"
162	30.4.10	"Renato"	"R290410_7"	"R290410_7a"	"Si-Wafer"	668,00	647	200	10	30,00	35,00		"SiGe"
163	30.4.10	"Renato"	"R290410_8"	"R290410_8a"	"Si-Wafer"	668,00	647	200	10	30,00	35,00		"SiGe"
164	30.4.10	"Renato"	"R290410_9"	"R290410_9a"	"Si-Wafer"	668,00	647	200	10	30,00	35,00		"SiGe"
165	30.4.10	"Renato"	"R290410_10"	"R290410_10a"	"Si-Wafer"	668,00	647	200	10	30,00	35,00		"SiGe"
166	6.5.10	"Renato"	"R290410_1"	"R290410_1b"	"Si-Wafer"	500,00	488	150	5	30,00	35,00		"SiGe"
167	6.5.10	"Renato"	"R290410_2"	"R290410_2b"	"Si-Wafer"	500,00	488	150	5	30,00	35,00		"SiGe"
168	6.5.10	"Renato"	"R290410_3"	"R290410_3b"	"Si-Wafer"	500,00	488	150	5	30,00	35,00		"SiGe"
169	6.5.10	"Renato"	"R290410_4"	"R290410_4b"	"Si-Wafer"	500,00	488	150	10	30,00	35,00		"SiGe"
170	6.5.10	"Renato"	"R290410_5"	"R290410_5b"	"Si-Wafer"	500,00	488	150	10	30,00	35,00		"SiGe"
171	6.5.10	"Renato"	"R290410_6"	"R290410_6b"	"Si-Wafer"	500,00	488	150	5	30,00	35,00		"SiGe"
172	6.5.10	"Renato"	"R290410_7"	"R290410_7b"	"Si-Wafer"	500,00	488	150	5	30,00	35,00		"SiGe"
173	6.5.10	"Renato"	"R290410_8"	"R290410_8b"	"Si-Wafer"	500,00	488	150	5	30,00	35,00		"SiGe"
174	6.5.10	"Renato"	"R290410_9"	"R290410_9b"	"Si-Wafer"	500,00	488	150	5	30,00	35,00		"SiGe"
175	6.5.10	"Renato"	"R290410_10"	"R290410_10b"	"Si-Wafer"	500,00	488	150	5	30,00	35,00		"SiGe"
176	10.5.10	"Wördenweber"	"10D126-5"	"10D126-5t1"	"ZnO geätzt"	668,00	647	200	5	30,00	40,00	56,0%
177	10.5.10	"Wördenweber"	"10D135-5"	"10D135-5t1"	"ZnO geätzt"	668,00	647	200	5	30,00	40,00	57,7%
178	10.5.10	"Wördenweber"	"10D107-5"	"10D107-5t1"	"ZnO geätzt"	668,00	647	200	5	30,00	40,00	52,8%
179	10.5.10	"Meier"	"10S153"	"10S153t1"	"ZnO geätzt"	668,00	647	200	5	30,00	40,00	47,9%	"Schicht großflächig abgeplatzt, Messung in der Mitte"
180	10.5.10	"Meier"	"10S153"	"10S153t2"	"ZnO geätzt"	668,00	647	200	5	30,00	40,00	75,6%	"Messung am Rand, wo die Schicht noch haftet"
181	11.5.10	"Renato"	"R50La"	"R50La1"	"Si-Wafer"	500,00	488	150	5	30,00	40,00		"SiGe"
182	11.5.10	"Renato"	"R50Lb"	"R50Lb1"	"Si-Wafer"	500,00	488	150	5	30,00	40,00		"SiGe"
183	11.5.10	"Renato"	"R50Lc"	"R50Lc1"	"Si-Wafer"	500,00	488	150	5	30,00	40,00		"SiGe"
184	11.5.10	"Renato"	"R50F"	"R50F1"	"Si-Wafer"	500,00	488	150	5	30,00	40,00		"SiGe"
185	11.5.10	"Renato"	"R100F"	"R100F1"	"Si-Wafer"	500,00	488	150	5	30,00	40,00		"SiGe"
186	11.5.10	"Renato"	"R100La"	"R100La1"	"Si-Wafer"	500,00	488	150	5	30,00	40,00		"SiGe"
187	11.5.10	"Renato"	"R100Lb"	"R100Lb1"	"Si-Wafer"	500,00	488	150	5	30,00	40,00		"SiGe"
188	11.5.10	"Renato"	"R100Lc"	"R100Lc1"	"Si-Wafer"	500,00	488	150	5	30,00	40,00		"SiGe"
189	11.5.10	"Renato"	"R25F"	"R25F1"	"Si-Wafer"	500,00	488	150	5	30,00	40,00		"SiGe"
190	12.5.10	"Renato"	"R25La"	"R25La1"	"Si-Wafer"	500,00	488	150	5	30,00	40,00		"SiGe"
191	12.5.10	"Renato"	"R25Lb"	"R25Lb1"	"Si-Wafer"	500,00	488	150	5	30,00	40,00		"SiGe"
192	12.5.10	"Renato"	"R25Lc"	"R25Lc1"	"Si-Wafer"	500,00	488	150	5	30,00	40,00		"SiGe"
193	12.5.10	"Tsveti"	"10d184-5"	"10d184-5c1"	"Corning 1.1mm"	500,00	488	150	5	30,00	40,00	91,3%
194	12.5.10	"Tsveti"	"10d213-5"	"10d213-5c1"	"Corning 1.1mm"	500,00	488	150	5	30,00	40,00	45,0%
195	12.5.10	"Tsveti"	"10d213-1"	"10d213-1t1"	"ZnO geätzt"	500,00	488	150	5	30,00	40,00	54,7%
196	12.5.10	"Tsveti"	"09d250-5"	"09d250-5c1"	"Corning 1.1mm"	500,00	488	150	5	30,00	40,00	92,2%
197	12.5.10	"Tsveti"	"09d250-9"	"09d250-9c1"	"Corning 1.1mm"	500,00	488	150	5	30,00	40,00	92,4%
198	12.5.10	"Michard"	"10p079"	"10p079c1"	"Corning 1.1mm"	500,00	488	150	10	30,00	40,00
199	12.5.10	"Michard"	"10p080"	"10p080c1"	"Corning 1.1mm"	500,00	488	150	10	30,00	40,00
200	17.5.10	"Michard"	"10p083"	"10p083c1"	"Corning 1.1mm"	500,00	488	150	10	30,00	40,00
201	17.5.10	"Michard"	"10p084"	"10p084c1"	"Corning 1.1mm"	500,00	488	150	10	30,00	40,00
202	17.5.10	"Michard"	"10p086"	"10p086c1"	"Corning 1.1mm"	500,00	488	150	10	30,00	40,00
203	17.5.10	"Michard"	"10p087"	"10p087c1"	"Corning 1.1mm"	500,00	488	150	10	30,00	40,00
204	17.5.10	"Tsveti"	"10d218-5"	"10d218-5c1"	"Corning 1.1mm"	500,00	488	150	10	120,00	40,00	68,8%	"<p> dünn"
205	17.5.10	"Tsveti"	"10d218-1"	"10d218-1c2"	"ZnO geätzt"	500,00	488	150	10	120,00	40,00	61,5%	"<p> dünn"
206	19.5.10	"Tsveti"	"zno190510"	"zno190510a"	"ZnO geätzt"	500,00	488	150	10	120,00	40,00
207	19.5.10	"Tsveti"	"10l499-1"	"10l499-1c1"	"Corning 1.1mm"	500,00	488	150	10	120,00	40,00	40,2%	"<p> dünn"
208	19.5.10	"Tsveti"	"10l499-3"	"10l499-3c1"	"Corning 1.1mm"	500,00	488	150	10	120,00	40,00	47,1%	"<p> dünn"
209	19.5.10	"Tsveti"	"corning190510"	"corning190510a"	"Corning 1.1mm"	500,00	488	150	10	120,00	40,00
210	19.5.10	"Tsveti"	"10l499-2"	"10l499-2c1"	"ZnO geätzt"	500,00	488	150	10	120,00	40,00	48,7%	"<p> dünn"
211	19.5.10	"Tsveti"	"10l501-2"	"10l501-2c1"	"ZnO geätzt"	500,00	488	150	10	30,00	40,00	70,1%
212	19.5.10	"Tsveti"	"10l500-2"	"10l500-2c1"	"ZnO geätzt"	500,00	488	150	10	30,00	40,00	91,1%
213	19.5.10	"Tsveti"	"10l500-1"	"10l500-1c1"	"Corning 1.1mm"	500,00	488	150	10	30,00	40,00	91,3%
214	19.5.10	"Tsveti"	"10l500-3"	"10l500-3c1"	"Corning 1.1mm"	500,00	488	150	10	30,00	40,00	91,9%
215	19.5.10	"Tsveti"	"10l501-1"	"10l501-1c1"	"Corning 1.1mm"	500,00	488	150	10	30,00	40,00	68,5%
216	19.5.10	"Tsveti"	"10l501-3"	"10l501-3c1"	"Corning 1.1mm"	500,00	488	150	10	30,00	40,00	74,8%
217	20.5.10	"Michard"	"10p106"	"10p109c1"	"Corning 1.1mm"	500,00	488	150	10	30,00	40,00	69,8%
218	21.5.10	"Tsveti"	"09d221-1"	"09d221-1t1"	"ZnO geätzt"	500,00	488	150	10	30,00	40,00	87,3%
219	21.5.10	"Tsveti"	"09d221-5"	"09d221-5t1"	"Corning 1.1mm"	500,00	488	150	10	30,00	40,00	86,3%
220	26.5.10	"Tsveti"	"10l500-1"	"10l500-1c2"	"Corning 1.1mm"	668,00	647	200	10	30,00	40,00	94,3%
221	26.5.10	"Tsveti"	"10l500-2"	"10l500-2c2"	"ZnO geätzt"	668,00	647	200	10	30,00	40,00	94,2%
222	26.5.10	"Tsveti"	"10l500-3"	"10l500-3c2"	"Corning 1.1mm"	668,00	647	200	10	30,00	40,00	96,5%
223	26.5.10	"Tsveti"	"10l501-2"	"10l501-2c2"	"ZnO geätzt"	668,00	647	200	10	30,00	40,00	46,8%
224	26.5.10	"Tsveti"	"10l501-1"	"10l501-1c2"	"Corning 1.1mm"	668,00	647	200	10	30,00	40,00	54,8%
225	26.5.10	"Tsveti"	"10l501-3"	"10l501-3c2"	"Corning 1.1mm"	668,00	647	200	10	30,00	40,00	63,0%
226	26.5.10	"Tsveti"	"10d213-5"	"10d213-5c2"	"Corning 1.1mm"	668,00	647	200	10	30,00	40,00	37,0%
227	26.5.10	"Tsveti"	"10d213-1"	"10d213-1t2"	"ZnO geätzt"	668,00	647	200	10	30,00	40,00	48,0%
228	26.5.10	"Tsveti"	"10d184-5"	"10d184-5c2"	"Corning 1.1mm"	668,00	647	200	10	30,00	40,00	86,7%
229	26.5.10	"Tsveti"	"09d250-5"	"09d250-5c2"	"Corning 1.1mm"	668,00	647	200	10	30,00	40,00	88,1%
230	26.5.10	"Schicho"	"10l503"	"10l503t1"	"ZnO geätzt"	668,00	647	200	10	30,00	40,00	75,8%
231	26.5.10	"Sellmer"	"10c068"	"10c068t1"	"ZnO geätzt"	668,00	647	200	10	30,00	40,00	10,0%
232	26.5.10	"Sellmer"	"10c067"	"10c067t1"	"ZnO geätzt"	668,00	647	200	10	30,00	40,00	0,3%
233	27.5.10	"Schicho"	"10l503"	"10l503t2"	"ZnO geätzt"	500,00	488	150	10	30,00	40,00	76,8%
234	27.5.10	"Michard"	"10p108"	"10p108c1"	"Corning 1.1mm"	500,00	488	150	10	30,00	40,00	63,5%
235	27.5.10	"Michard"	"10p115"	"10p115c1"	"Corning 1.1mm"	500,00	488	150	10	30,00	40,00	63,4%
236	27.5.10	"Michard"	"10p116"	"10p116c1"	"Corning 1.1mm"	500,00	488	150	10	30,00	40,00	73,8%
237	27.5.10	"Michard"	"10p117"	"10p117c1"	"Corning 1.1mm"	500,00	488	150	10	30,00	40,00	73,3%
238	27.5.10	"Michard"	"10p118"	"10p118c1"	"Corning 1.1mm"	500,00	488	150	10	30,00	40,00	74,5%
239	31.5.10	"Michard"	"10p122"	"10p122c1"	"Corning 1.1mm"	500,00	488	150	10	30,00	40,00	66,2%
240	31.5.10	"Michard"	"10p123"	"10p123c1"	"Corning 1.1mm"	500,00	488	150	10	30,00	40,00	61,7%
241	31.5.10	"Michard"	"10p124"	"10p124c1"	"Corning 1.1mm"	500,00	488	150	10	30,00	40,00	58,9%
242	8.6.10	"Grootoonk"	"10b176"	"10b176t1"	"ZnO geätzt"	500,00	488	150	10	30,00	40,00	0,0%
243	8.6.10	"Grootoonk"	"10b176"	"10b176z1"	"ZnO"	500,00	488	150	10	30,00	40,00	0,0%
244	8.6.10	"Grootoonk"	"10b176"	"10b176r1"	"Corning rau"	500,00	488	150	10	30,00	40,00	0,0%
245	8.6.10	"Grootoonk"	"10b175"	"10b175z1"	"ZnO"	500,00	488	150	10	30,00	40,00	65,4%
246	8.6.10	"Grootoonk"	"10b175"	"10b175t1"	"ZnO geätzt"	500,00	488	150	10	30,00	40,00	63,4%
247	8.6.10	"Grootoonk"	"10b175"	"10b175r1"	"Corning rau"	500,00	488	150	10	30,00	40,00	36,4%
248	8.6.10	"Böttler"	"10c117"	"10c117c1"	"Corning 1.1mm"	500,00	488	150	10	30,00	40,00	35,6%	"<p>"
249	8.6.10	"Böttler"	"10c116"	"10c116c1"	"Corning 1.1mm"	500,00	488	150	10	30,00	40,00	36,8%	"<p>"
250	8.6.10	"Böttler"	"10c121"	"10c121c1"	"Corning 1.1mm"	500,00	488	150	10	30,00	40,00	46,4%	"<i>"
251	8.6.10	"Böttler"	"10c121"	"10c121r1"	"Quarz rau"	500,00	488	150	10	30,00	40,00	23,9%	"<i>"
252	8.6.10	"Böttler"	"10c097"	"10c097c1"	"Corning 1.1mm"	500,00	488	150	10	30,00	40,00	67,6%	"<p>"
253	8.6.10	"Böttler"	"10c099"	"10c099c1"	"Corning 1.1mm"	500,00	488	150	10	30,00	40,00	63,6%	"<p>"
254	8.6.10	"Böttler"	"10c095"	"10c095c1"	"Corning 1.1mm"	500,00	488	150	10	30,00	40,00	0,0%	"<p>"
255	8.6.10	"Böttler"	"10c108"	"10c108c1"	"Corning 1.1mm"	500,00	488	150	10	30,00	40,00	68,3%
256	8.6.10	"Böttler"	"10c108"	"10c108r1"	"Corning rau"	500,00	488	150	10	30,00	40,00	61,7%
257	8.6.10	"Böttler"	"10c111"	"10c111c1"	"Corning 1.1mm"	500,00	488	150	10	30,00	40,00	71,5%
258	8.6.10	"Böttler"	"10c111"	"10c111r1"	"Corning rau"	500,00	488	150	10	30,00	40,00	56,0%
259	8.6.10	"Böttler"	"10c113"	"10c113r1"	"Corning rau"	500,00	488	150	10	30,00	40,00	22,2%
260	9.6.10	"Böttler"	"10c112"	"10c112c1"	"Corning 1.1mm"	500,00	488	150	10	30,00	40,00	74,5%	"abgeplatzt"
261	9.6.10	"Böttler"	"10c112"	"10c112r1"	"Corning rau"	500,00	488	150	10	30,00	40,00	67,6%
262	9.6.10	"Böttler"	"10c115"	"10c115r1"	"Corning rau"	500,00	488	150	10	30,00	40,00	1,4%
263	9.6.10	"Tsveti"	"10l534-1"	"10l534-1t1"	"ZnO geätzt"	500,00	488	150	10	30,00	40,00	70,1%
264	9.6.10	"Tsveti"	"10l534-2"	"10l534-2c1"	"Corning 1.1mm"	500,00	488	150	10	30,00	40,00	69,9%
265	9.6.10	"Tsveti"	"10d224-1"	"10d224-1t1"	"ZnO geätzt"	500,00	488	150	10	30,00	40,00	66,6%
266	9.6.10	"Tsveti"	"10d224-5"	"10d224-5c1"	"Corning 1.1mm"	500,00	488	150	10	30,00	40,00	71,3%
267	9.6.10	"Huelsbeck"	"07b031d"	"07b031dt1"	"ZnO geätzt"	500,00	488	150	10	30,00	40,00	0,0%
268	9.6.10	"Huelsbeck"	"07b031d"	"07b031dc1"	"Corning 1.1mm"	500,00	488	150	10	30,00	40,00	0,0%
269	9.6.10	"Huelsbeck"	"07b025d"	"07b025dt1"	"ZnO geätzt"	500,00	488	150	10	30,00	40,00	73,0%
270	9.6.10	"Huelsbeck"	"07b025d"	"07b025dc1"	"Corning 1.1mm"	500,00	488	150	10	30,00	40,00	69,8%	"abgeplatzt"
271	9.6.10	"Huelsbeck"	"07b033d"	"07b033dt1"	"ZnO geätzt"	500,00	488	150	10	30,00	40,00	54,5%
272	9.6.10	"Huelsbeck"	"07b033d"	"07b033dc1"	"Corning 1.1mm"	500,00	488	150	10	30,00	40,00	58,5%
273	9.6.10	"Huelsbeck"	"07b032d"	"07b032dt1"	"ZnO geätzt"	500,00	488	150	10	30,00	40,00	21,8%
274	9.6.10	"Huelsbeck"	"07b032d"	"07b032dc1"	"Corning 1.1mm"	500,00	488	150	10	30,00	40,00	35,5%
275	9.6.10	"Huelsbeck"	"07b030d"	"07b030dt1"	"ZnO geätzt"	500,00	488	150	10	30,00	40,00	6,8%
276	9.6.10	"Huelsbeck"	"07b030d"	"07b030dc1"	"Corning 1.1mm"	500,00	488	150	10	30,00	40,00	15,0%	"abgeplatzt"
277	9.6.10	"Tsveti"	"10d231-1"	"10d231-1t1"	"ZnO geätzt"	668,00	647	200	10	30,00	40,00	66,2%	"<pin>"
278	9.6.10	"Tsveti"	"10d241-1"	"10d241-1t1"	"ZnO geätzt"	668,00	647	200	10	30,00	40,00	63,6%	"<pin>"
279	9.6.10	"Tsveti"	"10d241-5"	"10d241-5t1"	"ZnO geätzt"	668,00	647	200	10	30,00	40,00	62,4%	"<pin>"
280	16.6.10	"Xiao"	"10B178"	"10B178c1"	"Corning 1.1mm"	500,00	488	150	5	30,00	35,00	1,1%	"abgeplatzt (stark verschobner a-Si:H Peak (4 1/cm))"
281	16.6.10	"Xiao"	"10B179"	"10B179c1"	"Corning 1.1mm"	500,00	488	150	5	30,00	35,00	80,0%
282	16.6.10	"Xiao"	"10B180"	"10B180c1"	"Corning 1.1mm"	500,00	488	150	5	30,00	35,00	53,6%
283	16.6.10	"Xiao"	"10B181"	"10B181c1"	"Corning 1.1mm"	500,00	488	150	5	30,00	35,00	1,0%	"abgeplatzt  (stark verschobner a-Si:H Peak (4 1/cm))"
284	16.6.10	"Xiao"	"10B183"	"10B183c1"	"Corning 1.1mm"	500,00	488	150	10	30,00	35,00	83,8%
285	16.6.10	"Grootoonk"	"10b192"	"10b192r1"	"Corning rau"	500,00	488	150	10	30,00	35,00	2,9%
286	16.6.10	"Grootoonk"	"10b192"	"10b192z1"	"ZnO"	500,00	488	150	10	30,00	35,00	10,3%
287	16.6.10	"Grootoonk"	"10b192"	"10b192t1"	"ZnO geätzt"	500,00	488	150	10	30,00	35,00	1,8%
288	16.6.10	"Grootoonk"	"10b190"	"10b190r1"	"Corning rau"	500,00	488	150	10	30,00	35,00	0,8%
289	16.6.10	"Grootoonk"	"10b190"	"10b190z1"	"ZnO"	500,00	488	150	10	30,00	35,00	0,3%
290	16.6.10	"Grootoonk"	"10b190"	"10b190t1"	"ZnO geätzt"	500,00	488	150	10	30,00	35,00	1,4%
291	16.6.10	"Grootoonk"	"10b189"	"10b189z1"	"ZnO"	500,00	488	150	10	30,00	35,00	63,2%
292	16.6.10	"Grootoonk"	"10b189"	"10b189r1"	"Corning rau"	500,00	488	150	10	30,00	35,00	45,7%
293	16.6.10	"Grootoonk"	"10b189"	"10b189t1"	"ZnO geätzt"	500,00	488	150	10	30,00	35,00	40,6%
294	16.6.10	"Grootoonk"	"10b196"	"10b196c1"	"Corning 1.1mm"	500,00	488	150	10	30,00	35,00		"SiOx"
295	16.6.10	"Grootoonk"	"10b195"	"10b195c1"	"Corning 1.1mm"	500,00	488	150	10	30,00	35,00		"SiOx"
296	16.6.10	"Grootoonk"	"10b193"	"10b193c1"	"Corning 1.1mm"	500,00	488	150	10	30,00	35,00		"SiOx"
297	17.6.10	"Michard"	"10p108"	"10p108c2"	"Corning 1.1mm"	500,00	488	150	10	30,00	35,00	60,7%
298	17.6.10	"Michard"	"10p133"	"10p133c1"	"Corning 1.1mm"	500,00	488	150	10	30,00	35,00	67,4%
299	17.6.10	"Michard"	"10p134"	"10p134c1"	"Corning 1.1mm"	500,00	488	150	10	30,00	35,00	55,6%
300	17.6.10	"Michard"	"10p135"	"10p135c1"	"Corning 1.1mm"	500,00	488	150	10	30,00	35,00	60,7%
301	17.6.10	"Michard"	"10p136"	"10p136c1"	"Corning 1.1mm"	500,00	488	150	10	30,00	35,00	55,6%
302	17.6.10	"Michard"	"10p137"	"10p137c1"	"Corning 1.1mm"	500,00	488	150	10	30,00	35,00	62,1%
303	22.6.10	"Flikweert"	"10d282-9-1"	"10d282-9-1c1"	"Corning 1.1mm"	660,00	647	200	10	30,00	35,00	77,4%
304	22.6.10	"Flikweert"	"10d282-9-5"	"10d282-9-5c1"	"Corning 1.1mm"	660,00	647	200	10	30,00	35,00	76,3%
305	22.6.10	"Flikweert"	"10d282-9-8"	"10d282-9-8c1"	"Corning 1.1mm"	668,00	647	200	10	30,00	35,00	73,7%
306	22.6.10	"Flikweert"	"10d282-3-1"	"10d282-3-1c1"	"Corning 1.1mm"	668,00	647	200	10	30,00	35,00	73,2%
307	22.6.10	"Flikweert"	"10d282-3-5"	"10d282-3-5c1"	"Corning 1.1mm"	668,00	647	200	10	30,00	35,00	75,0%
308	22.6.10	"Flikweert"	"10d282-3-8"	"10d282-3-8c1"	"Corning 1.1mm"	668,00	647	200	10	30,00	35,00	75,4%
309	22.6.10	"Tsveti"	"10d261-1"	"10d261-1t1"	"ZnO geätzt"	668,00	647	200	10	30,00	35,00	60,5%	"<pin>"
310	22.6.10	"Tsveti"	"10d287-1"	"10d287-1t1"	"ZnO geätzt"	668,00	647	200	10	30,00	35,00	66,7%	"<pin>"
311	22.6.10	"Tsveti"	"10d292-1"	"10d292-1t1"	"ZnO geätzt"	668,00	647	200	10	30,00	35,00	60,4%	"<pin>"
312	24.6.10	"Michard"	"10p156"	"10p156c1"	"Corning 1.1mm"	500,00	488	150	10	30,00	35,00	43,7%
313	28.6.10	"Baumgartner"	"d166_5"	"kath_d166_5"	"Quarz"	423,00	413	150	10	30,00	53,00
314	28.6.10	"Baumgartner"	"d166_3"	"kath_d166_3_700"	"Quarz"	423,00	413	150	10	30,00	53,00		"Seite ?"
315	28.6.10	"Baumgartner"	"d166_3"	"kath_d166_3_700"	"Quarz"	423,00	413	150	10	30,00	53,00		"Glatte Seite"
316	28.6.10	"Baumgartner"	"d166_3"	"kath_d166_3_700"	"Quarz"	423,00	413	150	10	30,00	53,00		"Blasige Seite"
317	28.6.10	"Grootoonk"	"10b210"	"10b210c1"	"Corning 1.1mm"	500,00	488	150	10	30,00	35,00	69,7%
318	28.6.10	"Grootoonk"	"10b210"	"10b210r1"	"Corning rau"	500,00	488	150	10	30,00	35,00	58,4%
319	28.6.10	"Grootoonk"	"10b210"	"10b210z1"	"ZnO"	500,00	488	150	10	30,00	35,00	59,6%
320	28.6.10	"Grootoonk"	"10b210"	"10b210t1"	"ZnO geätzt"	500,00	488	150	10	30,00	35,00	62,3%
321	28.6.10	"Grootoonk"	"10b209"	"10b209c1"	"Corning 1.1mm"	500,00	488	150	10	30,00	35,00		"SiOx"
322	28.6.10	"Grootoonk"	"10b209"	"10b209t1"	"ZnO geätzt"	500,00	488	150	10	30,00	35,00		"SiOx"
323	28.6.10	"Grootoonk"	"10b200"	"10b200c1"	"Corning 1.1mm"	500,00	488	150	10	30,00	35,00		"SiOx"
324	28.6.10	"Grootoonk"	"10b200"	"10b200t1"	"ZnO geätzt"	500,00	488	150	10	30,00	35,00		"SiOx"
325	28.6.10	"Grootoonk"	"10b202"	"10b202c1"	"Corning 1.1mm"	500,00	488	150	10	30,00	35,00		"SiOx"
326	28.6.10	"Grootoonk"	"10b202"	"10b202t1"	"ZnO geätzt"	500,00	488	150	10	30,00	35,00		"SiOx"
327	28.6.10	"Grootoonk"	"10b206"	"10b206c1"	"Corning 1.1mm"	500,00	488	150	10	30,00	35,00		"SiOx"
328	28.6.10	"Grootoonk"	"10b206"	"10b206t1"	"ZnO geätzt"	500,00	488	150	10	30,00	35,00		"SiOx"
329	28.6.10	"Grootoonk"	"10b207"	"10b207c1"	"Corning 1.1mm"	500,00	488	150	10	30,00	35,00		"SiOx"
330	28.6.10	"Grootoonk"	"10b207"	"10b207t1"	"ZnO geätzt"	500,00	488	150	10	30,00	35,00		"SiOx"
331	29.6.10	"Sellmer"	"10c147"	"10c147r1"	"Corning rau"	500,00	488	150	10	30,00	35,00	81,7%
332	29.6.10	"Michard"	"10p173"	"10p173c1"	"Corning 1.1mm"	500,00	488	150	10	60,00	35,00	49,1%
333	30.6.10	"Böttler"	"10c132"	"10c132t1"	"ZnO geätzt"	668,00	647	200	10	30,00	40,00	42,3%	"<nip>"
334	30.6.10	"Böttler"	"10c140"	"10c140t1"	"ZnO geätzt"	668,00	647	200	10	30,00	40,00	28,5%	"<nip>"
335	30.6.10	"Böttler"	"10c129"	"10c129t1"	"ZnO geätzt"	668,00	647	200	10	30,00	40,00	57,5%	"<nip>"
336	30.6.10	"Böttler"	"10c143"	"10c143t1"	"ZnO geätzt"	668,00	647	200	10	30,00	40,00	72,0%	"<nip>"
337	30.6.10	"Böttler"	"10c139"	"10c139t1"	"ZnO geätzt"	668,00	647	200	10	30,00	40,00	78,0%	"<nip>"
338	30.6.10	"Böttler"	"10c090"	"10c090t1"	"ZnO geätzt"	668,00	647	200	10	30,00	40,00	69,1%	"<nip>"
339	30.6.10	"Böttler"	"10c091"	"10c091t1"	"ZnO geätzt"	668,00	647	200	10	30,00	40,00	67,4%	"<nip>"
340	30.6.10	"Tsveti"	"10d343-1"	"10d343-1t1"	"ZnO geätzt"	668,00	647	200	10	30,00	40,00	60,2%	"<pin>"
341	30.6.10	"Tsveti"	"10d328-1"	"10d328-1t1"	"ZnO geätzt"	668,00	647	200	10	30,00	40,00	60,7%	"<pin>"
342	30.6.10	"Tsveti"	"10d318-1"	"10d318-1t1"	"ZnO geätzt"	668,00	647	200	10	30,00	40,00	62,9%	"<pin>"
343	8.7.10	"Flikweert"	"10d375-4"	"10d375-4-17t1"	"ZnO geätzt"	668,00	647	200	10	30,00	40,00	24,0%	"<pin> Zelle 17"
344	8.7.10	"Flikweert"	"10d375-4"	"10d375-4-4t1"	"ZnO geätzt"	668,00	647	200	10	30,00	40,00	71,1%	"<pin> Zelle 4"
345	8.7.10	"Flikweert"	"10d375-4"	"10d375-4-30t1"	"ZnO geätzt"	668,00	647	200	10	30,00	40,00	3,5%	"<pin> Zelle 30"
346	8.7.10	"Flikweert"	"10d375-6"	"10d375-6-30t1"	"ZnO geätzt"	668,00	647	200	10	30,00	40,00	72,6%	"<pin>Zelle 30"
347	8.7.10	"Flikweert"	"10d375-6"	"10d375-6-4t1"	"ZnO geätzt"	668,00	647	200	10	30,00	40,00	2,4%	"<pin>Zelle 4"
348	8.7.10	"Flikweert"	"10d375-6"	"10d375-6-17t1"	"ZnO geätzt"	668,00	647	200	10	30,00	40,00	12,4%	"<pin>Zelle 17"
349	8.7.10	"Flikweert"	"10d363-5"	"10b363-5t1"	"ZnO geätzt"	668,00	647	200	10	30,00	40,00	61,5%	"<pin>"
350	8.7.10	"Flikweert"	"10d399-1"	"10d399-1t1"	"ZnO geätzt"	668,00	647	200	10	30,00	40,00	63,5%	"<pin>"
351	8.7.10	"Tsveti"	"10d353-2"	"10d353-2t1"	"ZnO geätzt"	668,00	647	200	10	30,00	40,00	57,4%	"<pin>"
352	8.7.10	"Tsveti"	"10d358-1"	"10d358-1t1"	"ZnO geätzt"	668,00	647	200	10	30,00	40,00	61,4%	"<pin>"
353	8.7.10	"Tsveti"	"10l0694-1"	"10l0694-1t1"	"ZnO geätzt"	668,00	647	200	10	30,00	40,00	64,6%	"<pin>"
354	8.7.10	"Tsveti"	"10d387-1"	"10d387-1t1"	"ZnO geätzt"	668,00	647	200	10	30,00	40,00	64,8%	"<pin>"
355	8.7.10	"Tsveti"	"10d392-1"	"10d392-1t1"	"ZnO geätzt"	668,00	647	200	10	30,00	40,00	57,7%
356	8.7.10	"Tsveti"	"10d380-1"	"10d380-1t1"	"ZnO geätzt"	668,00	647	200	10	30,00	40,00	79,4%
357	8.7.10	"Tsveti"	"10d392-5"	"10d392-5t1"	"Corning 1.1mm"	668,00	647	200	10	30,00	40,00	49,5%
358	8.7.10	"Tsveti"	"10d380-5"	"10d380-5t1"	"Corning 1.1mm"	668,00	647	200	10	30,00	40,00	73,7%
359	8.7.10	"Schulte"	"probe_c"	"probe_ct1"	"ZnO geätzt"	668,00	647	200	10	30,00	40,00	65,1%	"Polierte Probenoberfläche"
360	13.7.10	"Ding"	"10c157"	"10c157c1"	"Corning 1.1mm"	500,00	488	150	10	30,00	30,00		"SiOx"
361	13.7.10	"Ding"	"10c158"	"10c158c1"	"Corning 1.1mm"	500,00	488	150	10	30,00	30,00		"SiOx"
362	13.7.10	"Ding"	"10c159"	"10c159c1"	"Corning 1.1mm"	500,00	488	150	10	30,00	30,00		"SiOx"
363	13.7.10	"Ding"	"10c160"	"10c160c1"	"Corning 1.1mm"	500,00	488	150	10	60,00	30,00		"SiOx"
364	13.7.10	"Ding"	"10c161"	"10c161c1"	"Corning 1.1mm"	500,00	488	150	10	60,00	30,00		"SiOx"
365	13.7.10	"Michard"	"10p186"	"10p186c1"	"Corning 1.1mm"	500,00	488	150	10	30,00	30,00	59,7%	"<p>"
366	13.7.10	"Michard"	"10p187"	"10p187c1"	"Corning 1.1mm"	500,00	488	150	10	30,00	30,00	62,2%	"<p>"
367	13.7.10	"Böttler"	"10c164"	"10c164c1"	"Corning 1.1mm"	500,00	488	150	10	30,00	30,00	38,3%	"<p>"
368	13.7.10	"Böttler"	"10c166"	"10c166c1"	"Corning 1.1mm"	500,00	488	150	10	30,00	30,00	78,8%	"<p>"
369	13.7.10	"Böttler"	"10c168"	"10c168c1"	"Corning 1.1mm"	500,00	488	150	10	60,00	30,00	32,2%	"<p>"
370	14.7.10	"Grootoonk"	"10b226"	"10b226c1"	"Corning 1.1mm"	500,00	488	150	10	30,00	30,00	85,3%
371	14.7.10	"Grootoonk"	"10b226"	"10b226r1"	"Corning rau"	500,00	488	150	5	30,00	30,00	82,2%
372	14.7.10	"Grootoonk"	"10b226"	"10b226t1"	"ZnO geätzt"	500,00	488	150	5	30,00	30,00	84,8%
373	14.7.10	"Grootoonk"	"10b226"	"10b226z1"	"ZnO"	500,00	488	150	5	30,00	30,00	85,1%
374	15.7.10	"Grootoonk"	"10b232"	"10b232c1"	"Corning 1.1mm"	500,00	488	150	10	30,00	30,00	82,9%
375	15.7.10	"Grootoonk"	"10b232"	"10b232r1"	"Quarz rau"	500,00	488	150	10	30,00	30,00	78,1%
376	15.7.10	"Grootoonk"	"10b232"	"10b232z1"	"ZnO"	500,00	488	150	10	30,00	30,00	83,9%
377	15.7.10	"Grootoonk"	"10b232"	"10b232t1"	"ZnO geätzt"	500,00	488	150	10	30,00	30,00	81,7%
378	15.7.10	"Grootoonk"	"10b217"	"10b217c1"	"Corning 1.1mm"	500,00	488	150	10	30,00	30,00		"SiOx"
379	15.7.10	"Grootoonk"	"10b217"	"10b217t1"	"ZnO geätzt"	500,00	488	150	10	30,00	30,00		"SiOx"
380	15.7.10	"Grootoonk"	"10b221"	"10b221c1"	"Corning 1.1mm"	500,00	488	150	10	30,00	30,00	75,8%
381	15.7.10	"Grootoonk"	"10b221"	"10b221r1"	"Corning rau"	500,00	488	150	10	30,00	30,00	76,6%
382	15.7.10	"Grootoonk"	"10b221"	"10b221tz"	"ZnO"	500,00	488	150	10	30,00	30,00	82,1%
383	16.7.10	"Grootoonk"	"10b218"	"10b218c1"	"Corning 1.1mm"	500,00	488	150	10	30,00	30,00	78,8%
384	16.7.10	"Grootoonk"	"10b218"	"10b218r1"	"Quarz rau"	500,00	488	150	10	30,00	30,00	70,9%
385	16.7.10	"Grootoonk"	"10b218"	"10b218z1"	"ZnO"	500,00	488	150	10	30,00	30,00	78,5%
386	16.7.10	"Grootoonk"	"10b218"	"10b218t1"	"ZnO geätzt"	500,00	488	150	10	30,00	30,00	76,6%
387	16.7.10	"ACME"	"JG0182-5-1"	"JG0182-5-1c1"	"Eagle2000"	500,00	488	150	10	30,00	30,00
388	16.7.10	"ACME"	"JG0183-8-1"	"JG0183-8-1c1"	"Eagle2000"	500,00	488	150	10	30,00	30,00
389	16.7.10	"ACME"	"JG0183-9-1"	"JG0183-9-1c1"	"Eagle2000"	500,00	488	150	10	30,00	30,00
390	16.7.10	"Bosquet"	"10l0726-1-2"	"10l0726-1-2z1"	"ZnO"	500,00	488	150	10	30,00	30,00	52,4%
391	16.7.10	"Bosquet"	"10l0726-1-3"	"10l0726-1-3c1"	"Corning 1.1mm"	500,00	488	150	10	30,00	30,00	41,9%
392	19.7.10	"Gordijn"	"09l1434-3"	"09l1434-3-17t1"	"ZnO geätzt"	500,00	488	150	10	30,00	30,00	56,9%	"<pin> Zelle17"
393	19.7.10	"Gordijn"	"09l1434-1"	"09l1434-1-28t1"	"ZnO geätzt"	500,00	488	150	10	30,00	30,00	58,0%	"<pin> Zelle28"
394	19.7.10	"Gordijn"	"09l1493-2-2"	"09l1493-2-2-6t1"	"ZnO geätzt"	500,00	488	150	10	30,00	30,00	54,0%	"<pin> Zelle6"
395	19.7.10	"Gordijn"	"09l1493-1"	"09l1493-1-17t1"	"ZnO geätzt"	500,00	488	150	10	30,00	30,00	51,4%	"<pin> Zelle17"
396	19.7.10	"Michard"	"10p205"	"10p205c1"	"Corning 1.1mm"	500,00	488	150	10	60,00	30,00	42,9%
397	19.7.10	"Michard"	"10p206"	"10p206c1"	"Corning 1.1mm"	500,00	488	150	10	60,00	30,00		"Nicht auswertbar!!!"
398	19.7.10	"Michard"	"10p207"	"10p207c1"	"Corning 1.1mm"	500,00	488	150	10	60,00	30,00	51,2%
399	19.7.10	"Michard"	"10p208"	"10p208c1"	"Corning 1.1mm"	500,00	488	150	10	60,00	30,00	46,8%
400	19.7.10	"Michard"	"10p210"	"10p210c1"	"Corning 1.1mm"	500,00	488	150	10	60,00	30,00		"Nicht auswertbar!!!"
401	19.7.10	"Michard"	"corning"	"corning190710a"	"Corning 1.1mm"	500,00	488	150	10	60,00	30,00
[...]
1161	2.3.11	"Ding"	"Quarz030211"	"Quarz030211"	"Quarz"	500,00	488	150	5	60,00	50,00
1162	3.3.11	"Lambertz"	"11b090"	"11b090cr1"	"Chrom"	500,00	488	150	5	30,00	50,00
1163	3.3.11	"ACME"	"jh0333-2-1"	"jh0333-2-1c1"	"Eagle2000"	500,00	488	150	5	30,00	50,00
1164	3.3.11	"ACME"	"jh0333-3-1"	"jh0333-3-1c1"	"Eagle2000"	500,00	488	150	5	30,00	50,00
1165	3.3.11	"ACME"	"jh0333-4-1"	"jh0333-4-1c1"	"Eagle2000"	500,00	488	150	5	30,00	50,00
1166	3.3.11	"ACME"	"jh0333-5-1"	"jh0333-5-1c1"	"Eagle2000"	500,00	488	150	5	30,00	50,00
1167	3.3.11	"Tsveti"	"10d920-5"	"10d920-5t1"	"ZnO geätzt"	668,00	647	150	5	30,00	0,30	58,6%	"Mit Mikroskop 50x Objektiv"
1168	3.3.11	"Tsveti"	"11l201-1"	"11l201-1t1"	"ZnO geätzt"	668,00	647	150	5	30,00	0,30	35,4%	"Mit Mikroskop 50x Objektiv"
1169	3.3.11	"Tsveti"	"11l193-1"	"11l193-1t1"	"ZnO geätzt"	668,00	647	150	5	30,00	0,30	63,5%	"Mit Mikroskop 50x Objektiv"
1170	3.3.11	"Wördenweber"	"11d0280-1"	"11d0280-1-1t1"	"ZnO geätzt"	668,00	647	150	5	30,00	0,30	66,7%	"stelle1 Mit Mikroskop 50x Objektiv"
1171	3.3.11	"Wördenweber"	"11d0280-1"	"11d0280-1-2t1"	"ZnO geätzt"	668,00	647	150	5	30,00	0,30	71,9%	"stelle2 Mit Mikroskop 50x Objektiv"
1172	3.3.11	"Wördenweber"	"11d0280-1"	"11d0280-1-3t1"	"ZnO geätzt"	668,00	647	150	5	30,00	0,30	71,6%	"stelle3 Mit Mikroskop 50x Objektiv"
1173	3.3.11	"Wördenweber"	"11d0280-5"	"11d0280-5-1t1"	"ZnO geätzt"	668,00	647	150	5	30,00	0,30	72,0%	"stelle1 Mit Mikroskop 50x Objektiv"
1174	3.3.11	"Wördenweber"	"11d0280-5"	"11d0280-5-2t1"	"ZnO geätzt"	668,00	647	150	5	30,00	0,30	71,1%	"stelle2 Mit Mikroskop 50x Objektiv"
1175	3.3.11	"Wördenweber"	"11d0280-5"	"11d0280-5-3t1"	"ZnO geätzt"	668,00	647	150	5	30,00	0,30	72,3%	"stelle3 Mit Mikroskop 50x Objektiv"
1176	3.3.11	"Wördenweber"	"11d0295-1"	"11d0295-1-1t1"	"ZnO geätzt"	668,00	647	150	5	30,00	0,30	65,0%	"stelle1 Mit Mikroskop 50x Objektiv"
1177	3.3.11	"Wördenweber"	"11d0295-1"	"11d0295-1-2t1"	"ZnO geätzt"	668,00	647	150	5	30,00	0,30	58,7%	"stelle2 Mit Mikroskop 50x Objektiv"
1178	3.3.11	"Wördenweber"	"11d0295-1"	"11d0295-1-3t1"	"ZnO geätzt"	668,00	647	150	5	30,00	0,30	37,3%	"stelle3 Mit Mikroskop 50x Objektiv"
1179	3.3.11	"Wördenweber"	"11d0295-5"	"11d0295-5-1t1"	"ZnO geätzt"	668,00	647	150	5	30,00	0,30	76,7%	"stelle1 Mit Mikroskop 50x Objektiv"
1180	3.3.11	"Wördenweber"	"11d0295-5"	"11d0295-5-2t1"	"ZnO geätzt"	668,00	647	150	5	30,00	0,30	77,3%	"stelle2 Mit Mikroskop 50x Objektiv"
1181	3.3.11	"Wördenweber"	"11d0295-5"	"11d0295-5-3t1"	"ZnO geätzt"	668,00	647	150	5	30,00	0,30	77,4%	"stelle3 Mit Mikroskop 50x Objektiv"
1182	8.3.11	"Tsveti"	"11l-201-2"	"11l-201-2s1"	"Si-Wafer"	668,00	647	150	5	30,00	0,30		"Mit Mikroskop 50x Objektiv Nicht auswertbar wegen Si Substrat"
1183	8.3.11	"Tsveti"	"11l-194-2"	"11l-194-2s1"	"Si-Wafer"	668,00	647	150	5	30,00	0,30		"Mit Mikroskop 50x Objektiv Nicht auswertbar wegen Si Substrat"
1184	8.3.11	"Tsveti"	"11l-195-1"	"11l-195-1t1"	"ZnO geätzt"	668,00	647	150	5	30,00	0,30	60,6%	"Mit Mikroskop 50x Objektiv"
1185	8.3.11	"Tsveti"	"11l-201-1"	"11l-201-1t1"	"ZnO geätzt"	668,00	647	150	5	30,00	0,30	14,0%	"Mit Mikroskop 50x Objektiv"
1186	8.3.11	"Tsveti"	"11l-201-1"	"11l-201-1c1"	"Corning 1.1mm"	668,00	647	150	5	30,00	0,30	23,8%	"Mit Mikroskop 50x Objektiv"
1187	8.3.11	"Tsveti"	"11l-194-1"	"11l-194-1c1"	"Corning 1.1mm"	668,00	647	150	5	30,00	0,30	62,4%	"Mit Mikroskop 50x Objektiv"
1188	8.3.11	"g.yilmaz"	"11c099"	"11c099c1"	"Corning 1.1mm"	668,00	647	150	5	30,00	0,30	44,8%	"Mit Mikroskop 50x Objektiv"
1189	8.3.11	"g.yilmaz"	"11c098"	"11c098c1"	"Corning 1.1mm"	668,00	647	150	5	30,00	0,30	41,0%	"Mit Mikroskop 50x Objektiv"
1190	8.3.11	"g.yilmaz"	"11c097"	"11c097c1"	"Corning 1.1mm"	668,00	647	150	5	30,00	0,30	32,2%	"Mit Mikroskop 50x Objektiv"
1191	8.3.11	"g.yilmaz"	"11c097"	"11c097c2"	"Corning 1.1mm"	668,00	647	150	5	30,00	0,30	39,6%	"Mit Mikroskop 50x Objektiv"
1192	8.3.11	"ACME"	"JL1047-10"	"JL1047-10c1"	"Corning 1.1mm"	668,00	647	150	5	30,00	0,30		"Mit Mikroskop 50x Objektiv"
1193	9.3.11	"Muthmann"	"11s-109"	"11s-109scan1"	"ZnO geätzt"	500,00	488	150	5	30,00	0,25		"Scan 100µm Abstand"
1194	10.3.11	"Muthmann"	"11s-109"	"11s-109scan2"	"ZnO geätzt"	500,00	488	150	5	30,00	0,25		"Scan 5 µm Abstand 80 schritte"
1195	11.3.11	"Lambertz"	"11b-106"	"11b-106cr1"	"Chrom"	500,00	488	150	5	30,00	1,00		"Mit Mikroskop 50x Objektiv + Zyl. Linse Spott 20x2µm"
1196	11.3.11	"Lambertz"	"11b-097"	"11b-097c1"	"Corning 1.1mm"	500,00	488	150	5	30,00	1,00		"Mit Mikroskop 50x Objektiv + Zyl. Linse Spott 20x2µm"
1197	11.3.11	"Lambertz"	"11b-098"	"11b-098c1"	"Corning 1.1mm"	500,00	488	150	5	30,00	1,00		"Mit Mikroskop 50x Objektiv + Zyl. Linse Spott 20x2µm"
1198	11.3.11	"Lambertz"	"11b-099"	"11b-099c1"	"Corning 1.1mm"	500,00	488	150	5	30,00	1,00		"Mit Mikroskop 50x Objektiv + Zyl. Linse Spott 20x2µm"
1199	11.3.11	"Lambertz"	"11b-100"	"11b-100c1"	"Corning 1.1mm"	500,00	488	150	5	30,00	1,00		"Mit Mikroskop 50x Objektiv + Zyl. Linse Spott 20x2µm"
1200	11.3.11	"Lambertz"	"11b-101"	"11b-101c1"	"Corning 1.1mm"	500,00	488	150	5	30,00	1,00		"Mit Mikroskop 50x Objektiv + Zyl. Linse Spott 20x2µm"
1201	11.3.11	"Lambertz"	"11b-102"	"11b-102c1"	"Corning 1.1mm"	500,00	488	150	5	30,00	1,00		"Mit Mikroskop 50x Objektiv + Zyl. Linse Spott 20x2µm"
1202	11.3.11	"Lambertz"	"11b-060"	"11b-060c1"	"Corning 1.1mm"	500,00	488	150	5	30,00	1,00		"Mit Mikroskop 50x Objektiv + Zyl. Linse Spott 20x2µm"
1203	11.3.11	"Lambertz"	"10b-088"	"10b-088c1"	"Corning 1.1mm"	500,00	488	150	5	30,00	1,00		"Mit Mikroskop 50x Objektiv + Zyl. Linse Spott 20x2µm"
1204	11.3.11	"Lambertz"	"10b-321"	"10b-321c1"	"Corning 1.1mm"	500,00	488	150	5	30,00	1,00		"Mit Mikroskop 50x Objektiv + Zyl. Linse Spott 20x2µm"
1205	11.3.11	"Lambertz"	"10b-086"	"10b-086c1"	"Corning 1.1mm"	500,00	488	150	5	30,00	1,00		"Mit Mikroskop 50x Objektiv + Zyl. Linse Spott 20x2µm"
1206	11.3.11	"Lambertz"	"10b-043"	"10b-043c1"	"Corning 1.1mm"	500,00	488	150	5	30,00	1,00		"Mit Mikroskop 50x Objektiv + Zyl. Linse Spott 20x2µm"
1207	11.3.11	"Ding"	"11c-060"	"11c-060q3"	"Quarz"	500,00	488	150	5	30,00	1,00		"Mit Mikroskop 50x Objektiv + Zyl. Linse Spott 20x2µm"
1208	11.3.11	"Ding"	"11c-064"	"11c-064q3"	"Quarz"	500,00	488	150	5	30,00	1,00		"Mit Mikroskop 50x Objektiv + Zyl. Linse Spott 20x2µm"
1209	11.3.11	"Ding"	"11c-065"	"11c-065q3"	"Quarz"	500,00	488	150	5	30,00	1,00		"Mit Mikroskop 50x Objektiv + Zyl. Linse Spott 20x2µm"
1210	14.3.11	"Köhler"	"10s377"	"10s377scan1"	"ZnO geätzt"	500,00	488	150	3	10,00	0,25		"Scan 5 µm Abstand 120 schritte"
1211	15.3.11	"Köhler"	"10s377"	"10s377scan2"	"ZnO geätzt"	500,00	488	150	3	10,00	0,25		"Scan 2.5 µm Abstand 240 schritte"
1212	16.3.11	"Tsveti"	"11l-213-4"	"11l-213-4t1"	"ZnO geätzt"	668,00	647	150	5	10,00	1,50	78,8%	"Mit Mikroskop 50x Objektiv + Zyl. Linse Spott 20x2µm"
1213	16.3.11	"Tsveti"	"11l-213-3"	"11l-213-3t1"	"ZnO geätzt"	668,00	647	150	5	10,00	1,50	79,2%	"Mit Mikroskop 50x Objektiv + Zyl. Linse Spott 20x2µm"
1214	16.3.11	"Tsveti"	"11l-203-1"	"11l-203-1c1"	"Corning 1.1mm"	668,00	647	150	5	10,00	1,50	28,9%	"Mit Mikroskop 50x Objektiv + Zyl. Linse Spott 20x2µm"
1215	16.3.11	"Tsveti"	"11l-207-1"	"11l-207-1c1"	"Corning 1.1mm"	668,00	647	150	5	10,00	1,50	54,1%	"Mit Mikroskop 50x Objektiv + Zyl. Linse Spott 20x2µm"
1216	16.3.11	"Tsveti"	"11l-231-1"	"11l-231-1c1"	"Corning 1.1mm"	668,00	647	150	5	10,00	1,50	5,1%	"Mit Mikroskop 50x Objektiv + Zyl. Linse Spott 20x2µm"
1217	16.3.11	"Tsveti"	"11l-213-1"	"11l-213-1t1"	"ZnO geätzt"	668,00	647	150	5	10,00	1,50	78,5%	"Mit Mikroskop 50x Objektiv + Zyl. Linse Spott 20x2µm"
1218	16.3.11	"Tsveti"	"11l-208-4"	"11l-208-4t1"	"ZnO geätzt"	668,00	647	150	5	10,00	1,50	70,6%	"Mit Mikroskop 50x Objektiv + Zyl. Linse Spott 20x2µm"
1219	16.3.11	"Tsveti"	"11l-208-3"	"11l-208-3t1"	"ZnO geätzt"	668,00	647	150	5	10,00	1,50	70,2%	"Mit Mikroskop 50x Objektiv + Zyl. Linse Spott 20x2µm"
1220	16.3.11	"Tsveti"	"11l-208-1"	"11l-208-1t1"	"ZnO geätzt"	668,00	647	150	5	10,00	1,50	62,2%	"Mit Mikroskop 50x Objektiv + Zyl. Linse Spott 20x2µm"
1221	16.3.11	"Tsveti"	"11l-205-1"	"11l-205-1t1"	"ZnO geätzt"	668,00	647	150	5	10,00	1,50	14,8%	"Mit Mikroskop 50x Objektiv + Zyl. Linse Spott 20x2µm"
1222	16.3.11	"Tsveti"	"11l-205-3"	"11l-205-3t1"	"ZnO geätzt"	668,00	647	150	5	10,00	1,50	57,5%	"Mit Mikroskop 50x Objektiv + Zyl. Linse Spott 20x2µm"
1223	16.3.11	"Tsveti"	"11l-205-4"	"11l-205-4t1"	"ZnO geätzt"	668,00	647	150	5	10,00	1,50	60,8%	"Mit Mikroskop 50x Objektiv + Zyl. Linse Spott 20x2µm"
1224	16.3.11	"Tsveti"	"11l-212-1"	"11l-212-1t1"	"ZnO geätzt"	668,00	647	150	5	10,00	1,50	81,5%	"Mit Mikroskop 50x Objektiv + Zyl. Linse Spott 20x2µm"
1225	16.3.11	"Tsveti"	"11l-207-1"	"11l-207-1t1"	"ZnO geätzt"	668,00	647	150	5	10,00	1,50	65,8%	"Mit Mikroskop 50x Objektiv + Zyl. Linse Spott 20x2µm"
1226	16.3.11	"Tsveti"	"11l-204-1"	"11l-204-1t1"	"ZnO geätzt"	668,00	647	150	5	10,00	1,50	38,6%	"Mit Mikroskop 50x Objektiv + Zyl. Linse Spott 20x2µm"
1227	16.3.11	"Tsveti"	"11l-231-1"	"11l-231-1t1"	"ZnO geätzt"	668,00	647	150	5	10,00	1,50	5,8%	"Mit Mikroskop 50x Objektiv + Zyl. Linse Spott 20x2µm"
1228	16.3.11	"Tsveti"	"11l-202-3"	"11l-202-3t1"	"ZnO geätzt"	668,00	647	150	5	10,00	1,50	50,5%	"Mit Mikroskop 50x Objektiv + Zyl. Linse Spott 20x2µm"
1229	16.3.11	"Tsveti"	"11l-202-4"	"11l-202-4t1"	"ZnO geätzt"	668,00	647	150	5	10,00	1,50	53,7%	"Mit Mikroskop 50x Objektiv + Zyl. Linse Spott 20x2µm"
1230	16.3.11	"Tsveti"	"11l-195-3"	"11l-195-3t1"	"ZnO geätzt"	668,00	647	150	5	10,00	1,50	71,2%	"Mit Mikroskop 50x Objektiv + Zyl. Linse Spott 20x2µm"
1231	16.3.11	"Tsveti"	"11l-195-4"	"11l-195-4t1"	"ZnO geätzt"	668,00	647	150	5	10,00	1,50	72,0%	"Mit Mikroskop 50x Objektiv + Zyl. Linse Spott 20x2µm"
1232	16.3.11	"Tsveti"	"11l-232-3-1"	"11l-232-3-1t1"	"ZnO geätzt"	668,00	647	150	5	10,00	1,50	24,8%	"Mit Mikroskop 50x Objektiv + Zyl. Linse Spott 20x2µm"
1233	16.3.11	"Tsveti"	"11l-232-3-2"	"11l-232-3-2t1"	"ZnO geätzt"	668,00	647	150	5	10,00	1,50	35,7%	"Mit Mikroskop 50x Objektiv + Zyl. Linse Spott 20x2µm"
1234	16.3.11	"Tsveti"	"11l-232-4-1"	"11l-232-4-1t1"	"ZnO geätzt"	668,00	647	150	5	10,00	1,50	50,3%	"Mit Mikroskop 50x Objektiv + Zyl. Linse Spott 20x2µm"
1235	16.3.11	"Tsveti"	"11l-232-4-2"	"11l-232-4-2t1"	"ZnO geätzt"	668,00	647	150	5	10,00	1,50	46,7%	"Mit Mikroskop 50x Objektiv + Zyl. Linse Spott 20x2µm"
1236	16.3.11	"Tsveti"	"11l-232-1"	"11l-232-1t1"	"ZnO geätzt"	668,00	647	150	5	10,00	1,50	4,8%	"Mit Mikroskop 50x Objektiv + Zyl. Linse Spott 20x2µm"
1237	18.3.11	"Lambertz"	"11b-085"	"11b-085c1"	"Corning 1.1mm"	500,00	488	150	5	30,00	1,00		"Mit Mikroskop 50x Objektiv + Zyl. Linse Spott 20x2µm"
1238	21.3.11	"g.yilmaz"	"11c-097"	"11c-097rc1"	"Corning rau"	668,00	647	150	5	30,00	1,50	12,0%	"Mit Mikroskop 50x Objektiv + Zyl. Linse Spott 20x2µm"
1239	21.3.11	"g.yilmaz"	"11c-114"	"11c-114rc1"	"Corning rau"	668,00	647	150	5	30,00	1,50	13,3%	"Mit Mikroskop 50x Objektiv + Zyl. Linse Spott 20x2µm"
1240	21.3.11	"g.yilmaz"	"11c-098"	"11c-098rc1"	"Corning rau"	668,00	647	150	5	30,00	1,50	25,5%	"Mit Mikroskop 50x Objektiv + Zyl. Linse Spott 20x2µm"
1241	21.3.11	"Tsveti"	"11l-231-1"	"11l-231-1c2"	"Corning 1.1mm"	668,00	647	150	5	30,00	1,50	2,9%	"Mit Mikroskop 50x Objektiv + Zyl. Linse Spott 20x2µm"
1242	21.3.11	"Tsveti"	"11l-237-1"	"11l-237-1c1"	"Corning 1.1mm"	668,00	647	150	5	30,00	1,50	80,4%	"Mit Mikroskop 50x Objektiv + Zyl. Linse Spott 20x2µm"
1243	21.3.11	"Tsveti"	"11l-212-1"	"11l-212-1c1"	"Corning 1.1mm"	668,00	647	150	5	30,00	1,50	79,2%	"Mit Mikroskop 50x Objektiv + Zyl. Linse Spott 20x2µm"
1244	21.3.11	"Tsveti"	"11l-237-1"	"11l-237-1t1"	"ZnO geätzt"	668,00	647	150	5	30,00	1,50	82,0%	"Mit Mikroskop 50x Objektiv + Zyl. Linse Spott 20x2µm"
1245	21.3.11	"Tsveti"	"11l-238-1"	"11l-238-1t1"	"ZnO geätzt"	668,00	647	150	5	30,00	1,50	80,0%	"Mit Mikroskop 50x Objektiv + Zyl. Linse Spott 20x2µm"
1246	21.3.11	"Tsveti"	"11l-238-3-1"	"11l-238-3-1t1"	"ZnO geätzt"	668,00	647	150	5	30,00	1,50	80,4%	"Mit Mikroskop 50x Objektiv + Zyl. Linse Spott 20x2µm"
1247	21.3.11	"Tsveti"	"11l-238-3-2"	"11l-238-3-2t1"	"ZnO geätzt"	668,00	647	150	5	30,00	1,50	80,7%	"Mit Mikroskop 50x Objektiv + Zyl. Linse Spott 20x2µm"
1248	21.3.11	"Tsveti"	"11l-238-4-1"	"11l-238-4-1t1"	"ZnO geätzt"	668,00	647	150	5	30,00	1,50	80,8%	"Mit Mikroskop 50x Objektiv + Zyl. Linse Spott 20x2µm"
1249	21.3.11	"Tsveti"	"11l-238-4-2"	"11l-238-4-2t1"	"ZnO geätzt"	668,00	647	150	5	30,00	1,50	80,5%	"Mit Mikroskop 50x Objektiv + Zyl. Linse Spott 20x2µm"
1250	21.3.11	"Tsveti"	"10d-952-5"	"10d-952-5t1"	"ZnO geätzt"	668,00	647	150	5	30,00	1,50	61,3%	"Mit Mikroskop 50x Objektiv + Zyl. Linse Spott 20x2µm"
1251	21.3.11	"Tsveti"	"10d-504-5"	"10d-504-5t1"	"ZnO geätzt"	668,00	647	150	5	30,00	1,50	61,3%	"Mit Mikroskop 50x Objektiv + Zyl. Linse Spott 20x2µm"
1252	21.3.11	"Tsveti"	"10d-901-6"	"10d-901-6t1"	"ZnO geätzt"	668,00	647	150	5	30,00	1,50	59,6%	"Mit Mikroskop 50x Objektiv + Zyl. Linse Spott 20x2µm"
1253	21.3.11	"Tsveti"	"10d-755-6"	"10d-755-6t1"	"ZnO geätzt"	668,00	647	150	5	30,00	1,50	65,2%	"Mit Mikroskop 50x Objektiv + Zyl. Linse Spott 20x2µm"
1254	21.3.11	"Tsveti"	"10d-765-6"	"10d-765-6t1"	"ZnO geätzt"	668,00	647	150	5	30,00	1,50	65,5%	"Mit Mikroskop 50x Objektiv + Zyl. Linse Spott 20x2µm"
1255	21.3.11	"Tsveti"	"10d-920-5"	"10d-920-5t1"	"ZnO geätzt"	668,00	647	150	5	30,00	1,50	59,2%	"Mit Mikroskop 50x Objektiv + Zyl. Linse Spott 20x2µm"
1256	21.3.11	"Tsveti"	"10d-482-5"	"10d-482-5t1"	"ZnO geätzt"	668,00	647	150	5	30,00	1,50	58,5%	"Mit Mikroskop 50x Objektiv + Zyl. Linse Spott 20x2µm"
1257	21.3.11	"Tsveti"	"10d-438-9"	"10d-438-9t1"	"ZnO geätzt"	668,00	647	150	5	30,00	1,50	60,0%	"Mit Mikroskop 50x Objektiv + Zyl. Linse Spott 20x2µm"
1258	23.3.11	"Ding"	"11c-100"	"11c-100q3"	"Quarz"	500,00	488	150	5	30,00	1,00		"(50x + Zyl) ungetempert"
1259	23.3.11	"Ding"	"11c-101"	"11c-101q3"	"Quarz"	500,00	488	150	5	30,00	1,00		"(50x + Zyl) ungetempert"
1260	23.3.11	"Ding"	"11c-102"	"11c-102q3"	"Quarz"	500,00	488	150	5	30,00	1,00		"(50x + Zyl) ungetempert"
1261	23.3.11	"Ding"	"11c-103"	"11c-103q3"	"Quarz"	500,00	488	150	5	30,00	1,00		"(50x + Zyl) ungetempert"
1262	23.3.11	"Ding"	"11c-100"	"11c-100q1"	"Quarz"	500,00	488	150	5	30,00	1,00		"(50x + Zyl) getempert 4h 1000°c"
1263	23.3.11	"Ding"	"11c-101"	"11c-101q1"	"Quarz"	500,00	488	150	5	30,00	1,00		"(50x + Zyl) getempert 4h 1000°c"
1264	23.3.11	"Ding"	"11c-102"	"11c-102q1"	"Quarz"	500,00	488	150	5	30,00	1,00		"(50x + Zyl) getempert 4h 1000°c"
1265	23.3.11	"Ding"	"11c-103"	"11c-103q1"	"Quarz"	500,00	488	150	5	30,00	1,00		"(50x + Zyl) getempert 4h 1000°c"
1266	23.3.11	"Ding"	"11c-100"	"11c-100q2"	"Quarz"	500,00	488	150	5	30,00	1,00		"(50x + Zyl) getempert 4h 1000°c"
1267	23.3.11	"Ding"	"11c-101"	"11c-101q2"	"Quarz"	500,00	488	150	5	30,00	1,00		"(50x + Zyl) getempert 4h 1000°c"
1268	23.3.11	"Ding"	"11c-102"	"11c-102q2"	"Quarz"	500,00	488	150	5	30,00	1,00		"(50x + Zyl) getempert 4h 1000°c"
1269	23.3.11	"Ding"	"11c-103"	"11c-103q2"	"Quarz"	500,00	488	150	5	30,00	1,00		"(50x + Zyl) getempert 4h 1000°c"
1270	23.3.11	"Beyer"	"05s-366"	"05s-366s1"	"Si-Wafer"	500,00	488	150	5	30,00	1,00	74,2%	"(50x + Zyl)"
1271	23.3.11	"Beyer"	"05s-337"	"05s-337s1"	"Si-Wafer"	500,00	488	150	5	30,00	1,00	68,2%	"(50x + Zyl)"
1272	23.3.11	"Beyer"	"05s-336"	"05s-336s1"	"Si-Wafer"	500,00	488	150	5	30,00	1,00	70,4%	"(50x + Zyl)"
1273	23.3.11	"Beyer"	"05s-367"	"05s-367s1"	"Si-Wafer"	500,00	488	150	5	30,00	1,00	0,0%	"(50x + Zyl)"
1274	23.3.11	"Beyer"	"05s-361"	"05s-361s1"	"Si-Wafer"	500,00	488	150	5	30,00	1,00	38,0%	"(50x + Zyl)"
1275	23.3.11	"Lambertz"	"11b-108"	"11b-108c1"	"Corning 1.1mm"	500,00	488	150	5	30,00	1,00		"(50x + Zyl)"
1276	23.3.11	"Lambertz"	"11b-109"	"11b-109c1"	"Corning 1.1mm"	500,00	488	150	5	30,00	1,00		"(50x + Zyl)"
1277	23.3.11	"Lambertz"	"11b-111"	"11b-111c1"	"Corning 1.1mm"	500,00	488	150	5	30,00	1,00		"(50x + Zyl)"
1278	23.3.11	"Lambertz"	"11b-112"	"11b-112c1"	"Corning 1.1mm"	500,00	488	150	5	30,00	1,00		"(50x + Zyl)"
1279	23.3.11	"Lambertz"	"11b-113"	"11b-113c1"	"Corning 1.1mm"	500,00	488	150	5	30,00	1,00		"(50x + Zyl)"
1280	23.3.11	"Lambertz"	"11b-114"	"11b-114c1"	"Corning 1.1mm"	500,00	488	150	5	30,00	1,00		"(50x + Zyl)"
1281	23.3.11	"Lambertz"	"11b-115"	"11b-115c1"	"Corning 1.1mm"	500,00	488	150	5	30,00	1,00		"(50x + Zyl)"
1282	23.3.11	"Lambertz"	"11b-118"	"11b-118c1"	"Corning 1.1mm"	500,00	488	150	5	30,00	1,00		"(50x + Zyl)"
1283	23.3.11	"Lambertz"	"11b-119"	"11b-119c1"	"Corning 1.1mm"	500,00	488	150	5	30,00	1,00		"(50x + Zyl)"
1284	23.3.11	"Lambertz"	"11b-120"	"11b-120c1"	"Corning 1.1mm"	500,00	488	150	5	30,00	1,00		"(50x + Zyl)"
1285	23.3.11	"Lambertz"	"11b-121"	"11b-121c1"	"Corning 1.1mm"	500,00	488	150	5	30,00	1,00		"(50x + Zyl)"
1286	23.3.11	"Lambertz"	"11b-123"	"11b-123c1"	"Corning 1.1mm"	500,00	488	150	5	30,00	1,00		"(50x + Zyl)"
1287	24.3.11	"dagkaldiran"	"11l-199-1"	"11l-199-1c1"	"Corning 1.1mm"	500,00	488	150	5	30,00	1,00		"(50x + Zyl)"
1288	25.3.11	"Wördenweber"	"11d-387-5"	"11d-387-5t1"	"ZnO geätzt"	668,00	647	150	5	30,00	1,50	69,7%	"(50x + Zyl)"
1289	25.3.11	"Wördenweber"	"11d-387-1"	"11d-387-1t1"	"ZnO geätzt"	668,00	647	150	5	30,00	1,50	68,6%	"(50x + Zyl)"
1290	25.3.11	"Wördenweber"	"11d-411-1"	"11d-411-1t1"	"ZnO geätzt"	668,00	647	150	5	30,00	1,50	68,2%	"(50x + Zyl)"
1291	25.3.11	"Wördenweber"	"11d-411-5"	"11d-411-5t1"	"ZnO geätzt"	668,00	647	150	5	30,00	1,50	68,3%	"(50x + Zyl)"
1292	28.3.11	"Andriessen"	"11l-189-2"	"11l-189-2scan1"	"ZnO geätzt"	668,00	647	150	3	5,00	0,28		"50x Obj. großer aa durchs Glas Scann 30x20 2µm abst."
1293	28.3.11	"Köhler"	"06l-1037-3"	"06l-1037-3scan1"	"ZnO geätzt"	668,00	647	150	3	8,00	0,28		"50x Obj. großer aa durchs Glas Scann 30x10 2µm abst. Zelle19"
1294	30.3.11	"g.yilmaz"	"11c-114"	"11c-114c1"	"Corning 1.1mm"	668,00	647	150	5	30,00	1,50	42,7%	"(50x + Zyl)"
1295	30.3.11	"g.yilmaz"	"11c-097"	"11c-097c2"	"Corning 1.1mm"	668,00	647	150	5	30,00	1,50	33,0%	"(50x + Zyl)"
1296	30.3.11	"g.yilmaz"	"11c-099"	"11c-099c2"	"Corning 1.1mm"	668,00	647	150	5	30,00	1,50	19,1%	"(50x + Zyl)"
1297	30.3.11	"g.yilmaz"	"11c-098"	"11c-098c2"	"Corning 1.1mm"	668,00	647	150	5	30,00	1,50	35,6%	"(50x + Zyl)"
1298	30.3.11	"g.yilmaz"	"11c-099"	"11c-099rc1"	"Corning rau"	668,00	647	150	5	30,00	1,50	16,7%	"(50x + Zyl)"
1299	30.3.11	"Wördenweber"	"11d-456-5"	"11d-456-5t1"	"ZnO geätzt"	668,00	647	150	5	30,00	1,50	58,2%	"(50x + Zyl)"
1300	30.3.11	"Wördenweber"	"11d-456-1"	"11d-456-1t1"	"ZnO geätzt"	668,00	647	150	5	30,00	1,50	64,4%	"(50x + Zyl)"
1301	30.3.11	"Wördenweber"	"11d-435-5"	"11d-435-5t1"	"ZnO geätzt"	668,00	647	150	5	30,00	1,50	68,1%	"(50x + Zyl)"
1302	30.3.11	"Wördenweber"	"11d-435-1"	"11d-435-1t1"	"ZnO geätzt"	668,00	647	150	5	30,00	1,50	68,4%	"(50x + Zyl)"
1303	30.3.11	"Wördenweber"	"11l-114-2-1"	"11l-114-2-1t1"	"ZnO geätzt"	668,00	647	150	5	30,00	1,50	42,1%	"50x Obj. großer aa + zyl  durchs Glas"
1304	30.3.11	"Wördenweber"	"11l-114-3-1"	"11l-114-3-1t1"	"ZnO geätzt"	668,00	647	150	5	30,00	1,50	57,3%	"50x Obj. großer aa + zyl  durchs Glas"
1305	30.3.11	"Wördenweber"	"11l-114-1"	"11l-114-1t1"	"ZnO geätzt"	668,00	647	150	5	30,00	1,50	40,5%	"50x Obj. großer aa + zyl  durchs Glas"
1306	31.3.11	"Wördenweber"	"11l-114-2-2"	"11l-114-2-2t1"	"ZnO geätzt"	668,00	647	150	5	30,00	1,50	52,6%	"50x Obj. großer aa + zyl  durchs Glas"
1307	31.3.11	"Wördenweber"	"11l-114-4"	"11l-114-4t1"	"Floatglas"	668,00	647	150	5	60,00	1,50	56,3%	"50x Obj. großer aa + zyl  durchs Glas Dickes Floatglas?"
1308	31.3.11	"Wördenweber"	"11l-083-1"	"11l-083-1t1"	"ZnO geätzt"	668,00	647	150	5	30,00	1,50	63,0%	"50x Obj. großer aa + zyl  durchs Glas"
1309	31.3.11	"Wördenweber"	"11l-083-2-1"	"11l-083-2-1t1"	"ZnO geätzt"	668,00	647	150	5	30,00	1,50	63,0%	"50x Obj. großer aa + zyl  durchs Glas"
1310	31.3.11	"Wördenweber"	"11l-083-2-2"	"11l-083-2-2t1"	"ZnO geätzt"	668,00	647	150	5	30,00	1,50	66,5%	"50x Obj. großer aa + zyl  durchs Glas"
1311	31.3.11	"Wördenweber"	"11l-083-3-1"	"11l-083-3-1t1"	"ZnO geätzt"	668,00	647	150	5	30,00	1,50	67,1%	"50x Obj. großer aa + zyl  durchs Glas"
1312	31.3.11	"Wördenweber"	"11l-083-4"	"11l-083-4t1"	"Floatglas"	668,00	647	150	5	60,00	1,50	66,7%	"50x Obj. großer aa + zyl  durchs Glas Dickes Floatglas?"